"participant","condition","block","trial_n","rt","accuracy"
227,1,1,1,564,1
227,1,1,2,424,1
227,1,1,3,443,1
227,1,1,4,421,1
227,1,1,5,431,1
227,1,1,6,403,1
227,1,1,7,462,1
227,1,1,8,431,1
227,1,1,9,641,1
227,1,1,10,523,1
227,1,1,11,402,1
227,1,1,12,429,1
227,1,1,13,360,1
227,1,1,14,469,1
227,1,1,15,422,1
227,1,1,16,409,1
227,1,1,17,380,1
227,1,1,18,433,1
227,1,1,19,650,1
227,1,1,20,412,1
227,1,1,21,383,1
227,1,1,22,411,1
227,1,1,23,470,1
227,1,1,24,423,1
227,1,1,25,402,1
227,1,1,26,821,0
227,1,1,27,631,1
227,1,1,28,529,1
227,1,1,29,471,1
227,1,1,30,408,1
227,1,1,31,387,1
227,1,1,32,351,1
227,1,1,33,349,1
227,1,1,34,378,1
227,1,1,35,463,1
227,1,1,36,488,1
227,1,1,37,408,1
227,1,1,38,451,1
227,1,1,39,492,1
227,1,1,40,428,1
227,1,2,1,780,1
227,1,2,2,608,1
227,1,2,3,764,1
227,1,2,4,545,1
227,1,2,5,647,1
227,1,2,6,505,1
227,1,2,7,664,1
227,1,2,8,553,1
227,1,2,9,670,1
227,1,2,10,527,1
227,1,2,11,1085,0
227,1,2,12,1149,1
227,1,2,13,442,1
227,1,2,14,468,1
227,1,2,15,396,1
227,1,2,16,640,1
227,1,2,17,450,1
227,1,2,18,564,1
227,1,2,19,600,1
227,1,2,20,508,1
227,1,2,21,1179,1
227,1,2,22,616,1
227,1,2,23,714,1
227,1,2,24,633,1
227,1,2,25,579,1
227,1,2,26,495,1
227,1,2,27,743,1
227,1,2,28,621,1
227,1,2,29,544,1
227,1,2,30,670,1
227,1,2,31,567,1
227,1,2,32,627,1
227,1,2,33,926,1
227,1,2,34,708,1
227,1,2,35,468,1
227,1,2,36,492,1
227,1,2,37,524,1
227,1,2,38,596,1
227,1,2,39,637,1
227,1,2,40,681,1
225,1,1,1,852,1
225,1,1,2,969,1
225,1,1,3,676,1
225,1,1,4,460,1
225,1,1,5,515,1
225,1,1,6,502,1
225,1,1,7,561,1
225,1,1,8,469,1
225,1,1,9,546,1
225,1,1,10,422,1
225,1,1,11,420,1
225,1,1,12,529,1
225,1,1,13,816,1
225,1,1,14,638,1
225,1,1,15,490,1
225,1,1,16,694,1
225,1,1,17,482,1
225,1,1,18,537,1
225,1,1,19,643,1
225,1,1,20,528,1
225,1,1,21,716,1
225,1,1,22,723,1
225,1,1,23,624,1
225,1,1,24,569,1
225,1,1,25,519,1
225,1,1,26,520,1
225,1,1,27,541,1
225,1,1,28,712,1
225,1,1,29,562,1
225,1,1,30,522,1
225,1,1,31,642,1
225,1,1,32,881,1
225,1,1,33,568,1
225,1,1,34,516,1
225,1,1,35,496,1
225,1,1,36,462,1
225,1,1,37,825,1
225,1,1,38,547,1
225,1,1,39,431,1
225,1,1,40,485,1
225,1,2,1,744,1
225,1,2,2,712,1
225,1,2,3,607,1
225,1,2,4,1073,1
225,1,2,5,887,1
225,1,2,6,1897,1
225,1,2,7,1096,1
225,1,2,8,856,1
225,1,2,9,630,1
225,1,2,10,3464,0
225,1,2,11,820,1
225,1,2,12,932,1
225,1,2,13,595,1
225,1,2,14,548,1
225,1,2,15,566,1
225,1,2,16,1062,1
225,1,2,17,615,1
225,1,2,18,624,1
225,1,2,19,681,1
225,1,2,20,530,1
225,1,2,21,644,1
225,1,2,22,706,1
225,1,2,23,715,1
225,1,2,24,739,1
225,1,2,25,581,1
225,1,2,26,596,1
225,1,2,27,634,1
225,1,2,28,515,1
225,1,2,29,573,1
225,1,2,30,859,1
225,1,2,31,632,1
225,1,2,32,532,1
225,1,2,33,603,1
225,1,2,34,523,1
225,1,2,35,555,1
225,1,2,36,799,1
225,1,2,37,554,1
225,1,2,38,538,1
225,1,2,39,416,1
225,1,2,40,528,1
226,2,1,1,542,1
226,2,1,2,445,1
226,2,1,3,376,1
226,2,1,4,517,1
226,2,1,5,488,1
226,2,1,6,447,1
226,2,1,7,511,1
226,2,1,8,418,1
226,2,1,9,389,1
226,2,1,10,414,1
226,2,1,11,441,1
226,2,1,12,390,1
226,2,1,13,359,1
226,2,1,14,417,1
226,2,1,15,388,1
226,2,1,16,392,1
226,2,1,17,371,1
226,2,1,18,407,1
226,2,1,19,395,1
226,2,1,20,405,1
226,2,1,21,387,1
226,2,1,22,387,1
226,2,1,23,461,1
226,2,1,24,418,1
226,2,1,25,364,1
226,2,1,26,402,1
226,2,1,27,360,1
226,2,1,28,432,1
226,2,1,29,452,1
226,2,1,30,385,1
226,2,1,31,369,1
226,2,1,32,425,1
226,2,1,33,436,1
226,2,1,34,376,1
226,2,1,35,401,1
226,2,1,36,434,1
226,2,1,37,409,1
226,2,1,38,376,1
226,2,1,39,388,1
226,2,1,40,447,1
226,2,2,1,651,1
226,2,2,2,918,0
226,2,2,3,889,1
226,2,2,4,731,1
226,2,2,5,732,1
226,2,2,6,539,1
226,2,2,7,471,1
226,2,2,8,457,1
226,2,2,9,410,1
226,2,2,10,463,1
226,2,2,11,505,1
226,2,2,12,458,1
226,2,2,13,436,1
226,2,2,14,370,1
226,2,2,15,541,1
226,2,2,16,470,1
226,2,2,17,431,1
226,2,2,18,457,1
226,2,2,19,479,1
226,2,2,20,520,1
226,2,2,21,506,1
226,2,2,22,523,1
226,2,2,23,585,1
226,2,2,24,1689,0
226,2,2,25,451,1
226,2,2,26,472,1
226,2,2,27,564,1
226,2,2,28,888,1
226,2,2,29,470,1
226,2,2,30,602,1
226,2,2,31,444,1
226,2,2,32,478,1
226,2,2,33,604,1
226,2,2,34,542,1
226,2,2,35,571,1
226,2,2,36,716,1
226,2,2,37,622,1
226,2,2,38,563,1
226,2,2,39,541,1
226,2,2,40,940,1
220,2,1,1,1436,1
220,2,1,2,1137,1
220,2,1,3,993,1
220,2,1,4,1058,1
220,2,1,5,1042,1
220,2,1,6,1186,1
220,2,1,7,1074,1
220,2,1,8,1378,1
220,2,1,9,754,1
220,2,1,10,1154,1
220,2,1,11,1090,1
220,2,1,12,1090,1
220,2,1,13,993,1
220,2,1,14,770,1
220,2,1,15,802,1
220,2,1,16,817,1
220,2,1,17,818,1
220,2,1,18,1778,1
220,2,1,19,1010,1
220,2,1,20,1298,1
220,2,1,21,706,1
220,2,1,22,546,1
220,2,1,23,545,1
220,2,1,24,994,1
220,2,1,25,594,1
220,2,1,26,978,1
220,2,1,27,786,1
220,2,1,28,738,1
220,2,1,29,2002,0
220,2,1,30,1216,1
220,2,1,31,818,1
220,2,1,32,1330,1
220,2,1,33,1042,1
220,2,1,34,1362,1
220,2,1,35,818,1
220,2,1,36,786,1
220,2,1,37,705,1
220,2,1,38,594,1
220,2,1,39,594,1
220,2,1,40,786,1
220,2,2,1,1677,1
220,2,2,2,897,1
220,2,2,3,785,1
220,2,2,4,1074,1
220,2,2,5,1010,1
220,2,2,6,961,1
220,2,2,7,721,1
220,2,2,8,1377,1
220,2,2,9,722,1
220,2,2,10,1106,1
220,2,2,11,930,1
220,2,2,12,1218,1
220,2,2,13,802,1
220,2,2,14,1810,1
220,2,2,15,738,1
220,2,2,16,833,1
220,2,2,17,722,1
220,2,2,18,1090,1
220,2,2,19,689,1
220,2,2,20,1058,1
220,2,2,21,834,1
220,2,2,22,994,1
220,2,2,23,738,1
220,2,2,24,1122,1
220,2,2,25,882,1
220,2,2,26,706,1
220,2,2,27,562,1
220,2,2,28,978,1
220,2,2,29,738,1
220,2,2,30,786,1
220,2,2,31,674,1
220,2,2,32,866,1
220,2,2,33,737,1
220,2,2,34,770,1
220,2,2,35,962,1
220,2,2,36,1153,1
220,2,2,37,722,1
220,2,2,38,802,1
220,2,2,39,770,1
220,2,2,40,850,1
224,2,1,1,532,1
224,2,1,2,365,1
224,2,1,3,455,1
224,2,1,4,550,1
224,2,1,5,387,1
224,2,1,6,758,0
224,2,1,7,381,1
224,2,1,8,464,1
224,2,1,9,381,1
224,2,1,10,847,0
224,2,1,11,626,1
224,2,1,12,743,1
224,2,1,13,401,1
224,2,1,14,527,1
224,2,1,15,540,1
224,2,1,16,370,1
224,2,1,17,396,1
224,2,1,18,508,1
224,2,1,19,503,1
224,2,1,20,377,1
224,2,1,21,448,1
224,2,1,22,435,1
224,2,1,23,527,1
224,2,1,24,445,1
224,2,1,25,565,1
224,2,1,26,625,1
224,2,1,27,376,1
224,2,1,28,605,1
224,2,1,29,695,1
224,2,1,30,419,1
224,2,1,31,602,1
224,2,1,32,802,0
224,2,1,33,729,1
224,2,1,34,436,1
224,2,1,35,431,1
224,2,1,36,565,1
224,2,1,37,550,1
224,2,1,38,578,1
224,2,1,39,593,1
224,2,1,40,537,1
224,2,2,1,583,1
224,2,2,2,774,0
224,2,2,3,435,1
224,2,2,4,558,1
224,2,2,5,673,1
224,2,2,6,646,1
224,2,2,7,568,1
224,2,2,8,604,1
224,2,2,9,383,1
224,2,2,10,532,1
224,2,2,11,520,1
224,2,2,12,585,1
224,2,2,13,611,1
224,2,2,14,460,1
224,2,2,15,406,1
224,2,2,16,555,1
224,2,2,17,397,1
224,2,2,18,593,1
224,2,2,19,409,1
224,2,2,20,776,0
224,2,2,21,476,1
224,2,2,22,579,1
224,2,2,23,567,1
224,2,2,24,627,1
224,2,2,25,597,1
224,2,2,26,519,1
224,2,2,27,401,1
224,2,2,28,818,1
224,2,2,29,413,1
224,2,2,30,529,1
224,2,2,31,474,1
224,2,2,32,667,1
224,2,2,33,437,1
224,2,2,34,574,1
224,2,2,35,596,1
224,2,2,36,491,1
224,2,2,37,533,1
224,2,2,38,599,1
224,2,2,39,400,1
224,2,2,40,500,1
217,1,1,1,603,1
217,1,1,2,464,1
217,1,1,3,346,1
217,1,1,4,418,1
217,1,1,5,477,1
217,1,1,6,457,1
217,1,1,7,507,1
217,1,1,8,405,1
217,1,1,9,465,1
217,1,1,10,508,1
217,1,1,11,581,1
217,1,1,12,493,1
217,1,1,13,477,1
217,1,1,14,472,1
217,1,1,15,523,1
217,1,1,16,483,1
217,1,1,17,445,1
217,1,1,18,489,1
217,1,1,19,498,1
217,1,1,20,452,1
217,1,1,21,511,1
217,1,1,22,496,1
217,1,1,23,562,1
217,1,1,24,529,1
217,1,1,25,513,1
217,1,1,26,513,1
217,1,1,27,563,1
217,1,1,28,521,1
217,1,1,29,457,1
217,1,1,30,558,1
217,1,1,31,556,1
217,1,1,32,531,1
217,1,1,33,499,1
217,1,1,34,533,1
217,1,1,35,548,1
217,1,1,36,468,1
217,1,1,37,710,1
217,1,1,38,600,1
217,1,1,39,566,1
217,1,1,40,476,1
217,1,2,1,691,1
217,1,2,2,565,1
217,1,2,3,540,1
217,1,2,4,996,0
217,1,2,5,794,1
217,1,2,6,546,1
217,1,2,7,457,1
217,1,2,8,627,1
217,1,2,9,568,1
217,1,2,10,495,1
217,1,2,11,569,1
217,1,2,12,560,1
217,1,2,13,543,1
217,1,2,14,543,1
217,1,2,15,1007,0
217,1,2,16,558,1
217,1,2,17,564,1
217,1,2,18,619,1
217,1,2,19,584,1
217,1,2,20,526,1
217,1,2,21,767,1
217,1,2,22,2167,1
217,1,2,23,576,1
217,1,2,24,543,1
217,1,2,25,560,1
217,1,2,26,702,1
217,1,2,27,552,1
217,1,2,28,671,1
217,1,2,29,634,1
217,1,2,30,606,1
217,1,2,31,716,1
217,1,2,32,677,1
217,1,2,33,729,1
217,1,2,34,624,1
217,1,2,35,517,1
217,1,2,36,591,1
217,1,2,37,596,1
217,1,2,38,578,1
217,1,2,39,658,1
217,1,2,40,620,1
218,2,1,1,595,1
218,2,1,2,421,1
218,2,1,3,447,1
218,2,1,4,319,1
218,2,1,5,389,1
218,2,1,6,423,1
218,2,1,7,449,1
218,2,1,8,441,1
218,2,1,9,402,1
218,2,1,10,420,1
218,2,1,11,445,1
218,2,1,12,405,1
218,2,1,13,447,1
218,2,1,14,424,1
218,2,1,15,417,1
218,2,1,16,466,1
218,2,1,17,401,1
218,2,1,18,419,1
218,2,1,19,788,0
218,2,1,20,630,1
218,2,1,21,471,1
218,2,1,22,421,1
218,2,1,23,543,1
218,2,1,24,411,1
218,2,1,25,397,1
218,2,1,26,408,1
218,2,1,27,338,1
218,2,1,28,478,1
218,2,1,29,454,1
218,2,1,30,437,1
218,2,1,31,478,1
218,2,1,32,549,1
218,2,1,33,425,1
218,2,1,34,891,0
218,2,1,35,584,1
218,2,1,36,386,1
218,2,1,37,364,1
218,2,1,38,488,1
218,2,1,39,503,1
218,2,1,40,717,1
218,2,2,1,662,1
218,2,2,2,630,1
218,2,2,3,598,1
218,2,2,4,489,1
218,2,2,5,615,1
218,2,2,6,681,1
218,2,2,7,487,1
218,2,2,8,630,1
218,2,2,9,455,1
218,2,2,10,478,1
218,2,2,11,622,1
218,2,2,12,470,1
218,2,2,13,462,1
218,2,2,14,1013,0
218,2,2,15,462,1
218,2,2,16,797,1
218,2,2,17,663,1
218,2,2,18,663,1
218,2,2,19,590,1
218,2,2,20,744,1
218,2,2,21,660,1
218,2,2,22,580,1
218,2,2,23,455,1
218,2,2,24,742,1
218,2,2,25,538,1
218,2,2,26,463,1
218,2,2,27,511,1
218,2,2,28,884,1
218,2,2,29,450,1
218,2,2,30,586,1
218,2,2,31,524,1
218,2,2,32,641,1
218,2,2,33,497,1
218,2,2,34,400,1
218,2,2,35,530,1
218,2,2,36,415,1
218,2,2,37,617,1
218,2,2,38,730,1
218,2,2,39,511,1
218,2,2,40,804,0
215,1,1,1,957,1
215,1,1,2,977,1
215,1,1,3,615,1
215,1,1,4,798,1
215,1,1,5,530,1
215,1,1,6,709,1
215,1,1,7,710,1
215,1,1,8,563,1
215,1,1,9,464,1
215,1,1,10,493,1
215,1,1,11,641,1
215,1,1,12,528,1
215,1,1,13,646,1
215,1,1,14,519,1
215,1,1,15,614,1
215,1,1,16,655,1
215,1,1,17,656,1
215,1,1,18,617,1
215,1,1,19,884,1
215,1,1,20,528,1
215,1,1,21,596,1
215,1,1,22,631,1
215,1,1,23,404,1
215,1,1,24,556,1
215,1,1,25,456,1
215,1,1,26,532,1
215,1,1,27,482,1
215,1,1,28,548,1
215,1,1,29,678,1
215,1,1,30,720,1
215,1,1,31,643,1
215,1,1,32,531,1
215,1,1,33,1140,1
215,1,1,34,762,1
215,1,1,35,1016,1
215,1,1,36,730,1
215,1,1,37,690,1
215,1,1,38,1259,1
215,1,1,39,707,1
215,1,1,40,723,1
215,1,2,1,1768,1
215,1,2,2,968,1
215,1,2,3,700,1
215,1,2,4,823,1
215,1,2,5,2052,0
215,1,2,6,1207,1
215,1,2,7,614,1
215,1,2,8,831,1
215,1,2,9,714,1
215,1,2,10,893,1
215,1,2,11,642,1
215,1,2,12,1555,0
215,1,2,13,954,1
215,1,2,14,928,1
215,1,2,15,520,1
215,1,2,16,835,1
215,1,2,17,577,1
215,1,2,18,846,1
215,1,2,19,634,1
215,1,2,20,828,1
215,1,2,21,730,1
215,1,2,22,877,1
215,1,2,23,619,1
215,1,2,24,721,1
215,1,2,25,562,1
215,1,2,26,1462,0
215,1,2,27,593,1
215,1,2,28,1124,1
215,1,2,29,677,1
215,1,2,30,640,1
215,1,2,31,621,1
215,1,2,32,644,1
215,1,2,33,682,1
215,1,2,34,767,1
215,1,2,35,842,1
215,1,2,36,788,1
215,1,2,37,700,1
215,1,2,38,494,1
215,1,2,39,602,1
215,1,2,40,819,1
208,2,1,1,656,1
208,2,1,2,374,1
208,2,1,3,360,1
208,2,1,4,529,1
208,2,1,5,340,1
208,2,1,6,903,0
208,2,1,7,431,1
208,2,1,8,344,1
208,2,1,9,526,1
208,2,1,10,331,1
208,2,1,11,416,1
208,2,1,12,411,1
208,2,1,13,502,1
208,2,1,14,413,1
208,2,1,15,587,1
208,2,1,16,524,1
208,2,1,17,666,1
208,2,1,18,622,0
208,2,1,19,518,1
208,2,1,20,510,1
208,2,1,21,580,1
208,2,1,22,627,1
208,2,1,23,387,1
208,2,1,24,527,1
208,2,1,25,600,1
208,2,1,26,472,1
208,2,1,27,370,1
208,2,1,28,357,1
208,2,1,29,506,1
208,2,1,30,357,1
208,2,1,31,686,0
208,2,1,32,546,1
208,2,1,33,488,0
208,2,1,34,429,1
208,2,1,35,404,1
208,2,1,36,437,1
208,2,1,37,382,1
208,2,1,38,473,1
208,2,1,39,407,1
208,2,1,40,427,1
208,2,2,1,768,1
208,2,2,2,990,0
208,2,2,3,582,1
208,2,2,4,631,1
208,2,2,5,641,1
208,2,2,6,429,1
208,2,2,7,530,1
208,2,2,8,648,1
208,2,2,9,563,0
208,2,2,10,338,1
208,2,2,11,441,1
208,2,2,12,499,1
208,2,2,13,819,0
208,2,2,14,936,0
208,2,2,15,489,1
208,2,2,16,843,0
208,2,2,17,874,1
208,2,2,18,1115,1
208,2,2,19,33,1
208,2,2,20,492,1
208,2,2,21,587,1
208,2,2,22,623,1
208,2,2,23,906,1
208,2,2,24,672,0
208,2,2,25,449,1
208,2,2,26,279,1
208,2,2,27,404,1
208,2,2,28,513,1
208,2,2,29,361,1
208,2,2,30,481,1
208,2,2,31,625,0
208,2,2,32,451,0
208,2,2,33,310,1
208,2,2,34,955,0
208,2,2,35,672,0
208,2,2,36,472,1
208,2,2,37,31,1
208,2,2,38,579,1
208,2,2,39,743,0
208,2,2,40,674,1
203,1,1,1,587,1
203,1,1,2,527,1
203,1,1,3,1309,0
203,1,1,4,559,1
203,1,1,5,611,1
203,1,1,6,486,1
203,1,1,7,385,1
203,1,1,8,472,1
203,1,1,9,521,1
203,1,1,10,937,1
203,1,1,11,1564,0
203,1,1,12,562,1
203,1,1,13,556,1
203,1,1,14,689,1
203,1,1,15,531,1
203,1,1,16,469,1
203,1,1,17,413,1
203,1,1,18,394,1
203,1,1,19,427,1
203,1,1,20,505,1
203,1,1,21,406,1
203,1,1,22,418,1
203,1,1,23,539,1
203,1,1,24,473,1
203,1,1,25,1109,0
203,1,1,26,473,1
203,1,1,27,496,1
203,1,1,28,348,1
203,1,1,29,983,0
203,1,1,30,465,1
203,1,1,31,576,1
203,1,1,32,482,1
203,1,1,33,576,1
203,1,1,34,697,0
203,1,1,35,662,1
203,1,1,36,687,0
203,1,1,37,634,1
203,1,1,38,507,1
203,1,1,39,625,1
203,1,1,40,487,1
203,1,2,1,945,1
203,1,2,2,645,1
203,1,2,3,682,1
203,1,2,4,631,1
203,1,2,5,614,1
203,1,2,6,632,1
203,1,2,7,706,1
203,1,2,8,1074,1
203,1,2,9,511,1
203,1,2,10,740,1
203,1,2,11,927,1
203,1,2,12,681,1
203,1,2,13,650,1
203,1,2,14,770,1
203,1,2,15,610,1
203,1,2,16,575,1
203,1,2,17,635,1
203,1,2,18,524,1
203,1,2,19,482,1
203,1,2,20,694,1
203,1,2,21,493,1
203,1,2,22,671,1
203,1,2,23,583,1
203,1,2,24,623,1
203,1,2,25,559,1
203,1,2,26,988,0
203,1,2,27,697,0
203,1,2,28,536,1
203,1,2,29,596,1
203,1,2,30,1022,0
203,1,2,31,1220,0
203,1,2,32,643,1
203,1,2,33,712,1
203,1,2,34,542,1
203,1,2,35,576,1
203,1,2,36,762,1
203,1,2,37,752,1
203,1,2,38,654,1
203,1,2,39,599,1
203,1,2,40,949,1
209,1,1,1,668,1
209,1,1,2,380,1
209,1,1,3,421,1
209,1,1,4,1083,0
209,1,1,5,487,1
209,1,1,6,463,1
209,1,1,7,440,1
209,1,1,8,470,1
209,1,1,9,390,1
209,1,1,10,476,1
209,1,1,11,519,1
209,1,1,12,481,1
209,1,1,13,538,1
209,1,1,14,468,1
209,1,1,15,464,1
209,1,1,16,425,1
209,1,1,17,566,1
209,1,1,18,744,1
209,1,1,19,478,1
209,1,1,20,499,1
209,1,1,21,422,1
209,1,1,22,409,1
209,1,1,23,500,1
209,1,1,24,471,1
209,1,1,25,426,1
209,1,1,26,428,1
209,1,1,27,479,1
209,1,1,28,443,1
209,1,1,29,417,1
209,1,1,30,464,1
209,1,1,31,377,1
209,1,1,32,633,1
209,1,1,33,499,1
209,1,1,34,383,1
209,1,1,35,382,1
209,1,1,36,426,1
209,1,1,37,361,1
209,1,1,38,462,1
209,1,1,39,531,1
209,1,1,40,390,1
209,1,2,1,522,1
209,1,2,2,625,1
209,1,2,3,435,1
209,1,2,4,429,1
209,1,2,5,404,1
209,1,2,6,603,1
209,1,2,7,510,1
209,1,2,8,385,1
209,1,2,9,361,1
209,1,2,10,510,1
209,1,2,11,406,1
209,1,2,12,949,0
209,1,2,13,526,1
209,1,2,14,920,1
209,1,2,15,595,1
209,1,2,16,639,1
209,1,2,17,465,1
209,1,2,18,410,1
209,1,2,19,529,1
209,1,2,20,536,1
209,1,2,21,565,1
209,1,2,22,406,1
209,1,2,23,385,1
209,1,2,24,677,1
209,1,2,25,506,1
209,1,2,26,527,1
209,1,2,27,613,1
209,1,2,28,525,1
209,1,2,29,531,1
209,1,2,30,574,1
209,1,2,31,482,1
209,1,2,32,362,1
209,1,2,33,479,1
209,1,2,34,404,1
209,1,2,35,443,1
209,1,2,36,769,1
209,1,2,37,537,1
209,1,2,38,427,1
209,1,2,39,390,1
209,1,2,40,574,1
213,1,1,1,749,1
213,1,1,2,434,1
213,1,1,3,436,1
213,1,1,4,486,1
213,1,1,5,502,1
213,1,1,6,406,1
213,1,1,7,425,1
213,1,1,8,459,1
213,1,1,9,405,1
213,1,1,10,552,1
213,1,1,11,525,1
213,1,1,12,508,1
213,1,1,13,395,1
213,1,1,14,471,1
213,1,1,15,432,1
213,1,1,16,570,1
213,1,1,17,479,1
213,1,1,18,456,1
213,1,1,19,401,1
213,1,1,20,404,1
213,1,1,21,391,1
213,1,1,22,419,1
213,1,1,23,358,1
213,1,1,24,475,1
213,1,1,25,372,1
213,1,1,26,328,1
213,1,1,27,519,1
213,1,1,28,630,1
213,1,1,29,416,1
213,1,1,30,443,1
213,1,1,31,437,1
213,1,1,32,527,1
213,1,1,33,422,1
213,1,1,34,456,1
213,1,1,35,449,1
213,1,1,36,1475,0
213,1,1,37,954,1
213,1,1,38,496,1
213,1,1,39,552,1
213,1,1,40,429,1
213,1,2,1,1196,1
213,1,2,2,1680,0
213,1,2,3,880,1
213,1,2,4,553,1
213,1,2,5,366,1
213,1,2,6,482,1
213,1,2,7,498,1
213,1,2,8,562,1
213,1,2,9,552,1
213,1,2,10,757,1
213,1,2,11,794,1
213,1,2,12,694,1
213,1,2,13,462,1
213,1,2,14,1423,0
213,1,2,15,585,1
213,1,2,16,429,1
213,1,2,17,656,1
213,1,2,18,793,1
213,1,2,19,709,1
213,1,2,20,876,1
213,1,2,21,533,1
213,1,2,22,899,0
213,1,2,23,634,1
213,1,2,24,764,1
213,1,2,25,689,1
213,1,2,26,505,1
213,1,2,27,536,1
213,1,2,28,582,1
213,1,2,29,594,1
213,1,2,30,878,1
213,1,2,31,535,1
213,1,2,32,653,1
213,1,2,33,558,1
213,1,2,34,635,1
213,1,2,35,981,1
213,1,2,36,682,1
213,1,2,37,522,1
213,1,2,38,585,1
213,1,2,39,517,1
213,1,2,40,827,1
204,2,1,1,844,1
204,2,1,2,854,1
204,2,1,3,568,1
204,2,1,4,468,1
204,2,1,5,533,1
204,2,1,6,763,1
204,2,1,7,584,1
204,2,1,8,620,1
204,2,1,9,495,1
204,2,1,10,519,1
204,2,1,11,566,1
204,2,1,12,570,1
204,2,1,13,495,1
204,2,1,14,567,1
204,2,1,15,460,1
204,2,1,16,693,1
204,2,1,17,869,1
204,2,1,18,542,1
204,2,1,19,580,1
204,2,1,20,576,1
204,2,1,21,573,1
204,2,1,22,562,1
204,2,1,23,615,1
204,2,1,24,458,1
204,2,1,25,491,1
204,2,1,26,715,1
204,2,1,27,474,1
204,2,1,28,498,1
204,2,1,29,698,1
204,2,1,30,562,1
204,2,1,31,519,1
204,2,1,32,414,1
204,2,1,33,657,1
204,2,1,34,498,1
204,2,1,35,418,1
204,2,1,36,429,1
204,2,1,37,504,1
204,2,1,38,407,1
204,2,1,39,570,1
204,2,1,40,831,0
204,2,2,1,1226,1
204,2,2,2,581,1
204,2,2,3,914,1
204,2,2,4,585,1
204,2,2,5,589,1
204,2,2,6,513,1
204,2,2,7,496,1
204,2,2,8,376,1
204,2,2,9,421,1
204,2,2,10,552,1
204,2,2,11,501,1
204,2,2,12,756,1
204,2,2,13,682,1
204,2,2,14,498,1
204,2,2,15,978,1
204,2,2,16,839,1
204,2,2,17,472,1
204,2,2,18,617,1
204,2,2,19,748,1
204,2,2,20,578,1
204,2,2,21,574,1
204,2,2,22,451,1
204,2,2,23,444,1
204,2,2,24,518,1
204,2,2,25,741,1
204,2,2,26,835,1
204,2,2,27,653,1
204,2,2,28,470,1
204,2,2,29,815,1
204,2,2,30,698,1
204,2,2,31,522,1
204,2,2,32,689,1
204,2,2,33,496,1
204,2,2,34,616,1
204,2,2,35,435,1
204,2,2,36,765,1
204,2,2,37,498,1
204,2,2,38,1410,0
204,2,2,39,1276,1
204,2,2,40,724,1
207,1,1,1,881,1
207,1,1,2,541,1
207,1,1,3,595,1
207,1,1,4,743,1
207,1,1,5,461,1
207,1,1,6,471,1
207,1,1,7,591,1
207,1,1,8,1235,1
207,1,1,9,637,1
207,1,1,10,543,1
207,1,1,11,549,1
207,1,1,12,779,1
207,1,1,13,735,1
207,1,1,14,525,1
207,1,1,15,484,1
207,1,1,16,684,1
207,1,1,17,492,1
207,1,1,18,580,1
207,1,1,19,512,1
207,1,1,20,776,1
207,1,1,21,501,1
207,1,1,22,612,1
207,1,1,23,623,1
207,1,1,24,490,1
207,1,1,25,506,1
207,1,1,26,489,1
207,1,1,27,625,1
207,1,1,28,549,1
207,1,1,29,665,1
207,1,1,30,753,1
207,1,1,31,599,0
207,1,1,32,642,1
207,1,1,33,548,1
207,1,1,34,666,1
207,1,1,35,483,1
207,1,1,36,621,1
207,1,1,37,469,1
207,1,1,38,606,1
207,1,1,39,546,1
207,1,1,40,727,1
207,1,2,1,1157,1
207,1,2,2,1035,1
207,1,2,3,549,1
207,1,2,4,850,1
207,1,2,5,555,1
207,1,2,6,1129,0
207,1,2,7,639,1
207,1,2,8,705,1
207,1,2,9,560,1
207,1,2,10,663,1
207,1,2,11,543,1
207,1,2,12,669,1
207,1,2,13,509,1
207,1,2,14,557,1
207,1,2,15,634,1
207,1,2,16,620,1
207,1,2,17,543,1
207,1,2,18,789,1
207,1,2,19,465,1
207,1,2,20,514,1
207,1,2,21,929,0
207,1,2,22,543,1
207,1,2,23,565,1
207,1,2,24,962,1
207,1,2,25,543,1
207,1,2,26,653,1
207,1,2,27,623,1
207,1,2,28,561,1
207,1,2,29,583,1
207,1,2,30,747,1
207,1,2,31,881,1
207,1,2,32,537,1
207,1,2,33,679,1
207,1,2,34,788,1
207,1,2,35,604,1
207,1,2,36,527,1
207,1,2,37,654,1
207,1,2,38,727,1
207,1,2,39,630,1
207,1,2,40,633,1
210,2,1,1,759,1
210,2,1,2,668,1
210,2,1,3,581,1
210,2,1,4,588,1
210,2,1,5,509,1
210,2,1,6,609,1
210,2,1,7,514,1
210,2,1,8,688,1
210,2,1,9,627,1
210,2,1,10,574,1
210,2,1,11,511,1
210,2,1,12,591,1
210,2,1,13,582,1
210,2,1,14,671,1
210,2,1,15,528,1
210,2,1,16,534,1
210,2,1,17,512,1
210,2,1,18,571,1
210,2,1,19,524,1
210,2,1,20,513,1
210,2,1,21,500,1
210,2,1,22,579,1
210,2,1,23,563,1
210,2,1,24,487,1
210,2,1,25,508,1
210,2,1,26,524,1
210,2,1,27,555,1
210,2,1,28,512,1
210,2,1,29,515,1
210,2,1,30,541,1
210,2,1,31,519,1
210,2,1,32,527,1
210,2,1,33,739,1
210,2,1,34,595,1
210,2,1,35,546,1
210,2,1,36,601,1
210,2,1,37,628,1
210,2,1,38,603,1
210,2,1,39,608,1
210,2,1,40,514,1
210,2,2,1,720,1
210,2,2,2,761,1
210,2,2,3,649,1
210,2,2,4,809,1
210,2,2,5,523,1
210,2,2,6,580,1
210,2,2,7,722,1
210,2,2,8,662,1
210,2,2,9,727,1
210,2,2,10,584,1
210,2,2,11,589,1
210,2,2,12,734,1
210,2,2,13,684,1
210,2,2,14,518,1
210,2,2,15,566,1
210,2,2,16,770,1
210,2,2,17,666,1
210,2,2,18,620,1
210,2,2,19,697,1
210,2,2,20,585,1
210,2,2,21,571,1
210,2,2,22,699,1
210,2,2,23,657,1
210,2,2,24,1000,1
210,2,2,25,619,1
210,2,2,26,567,1
210,2,2,27,653,1
210,2,2,28,607,1
210,2,2,29,720,1
210,2,2,30,752,1
210,2,2,31,839,1
210,2,2,32,769,1
210,2,2,33,565,1
210,2,2,34,741,1
210,2,2,35,599,1
210,2,2,36,829,1
210,2,2,37,640,1
210,2,2,38,640,1
210,2,2,39,641,1
210,2,2,40,681,1
211,1,1,1,1208,1
211,1,1,2,916,1
211,1,1,3,459,1
211,1,1,4,501,1
211,1,1,5,508,1
211,1,1,6,556,1
211,1,1,7,465,1
211,1,1,8,530,1
211,1,1,9,561,1
211,1,1,10,503,1
211,1,1,11,462,1
211,1,1,12,408,1
211,1,1,13,419,1
211,1,1,14,357,1
211,1,1,15,404,1
211,1,1,16,431,1
211,1,1,17,578,1
211,1,1,18,543,1
211,1,1,19,468,1
211,1,1,20,502,1
211,1,1,21,365,1
211,1,1,22,459,1
211,1,1,23,596,1
211,1,1,24,528,1
211,1,1,25,551,1
211,1,1,26,469,1
211,1,1,27,613,1
211,1,1,28,433,1
211,1,1,29,467,1
211,1,1,30,444,1
211,1,1,31,438,1
211,1,1,32,568,1
211,1,1,33,548,1
211,1,1,34,442,1
211,1,1,35,405,1
211,1,1,36,497,1
211,1,1,37,400,1
211,1,1,38,548,1
211,1,1,39,418,1
211,1,1,40,429,1
211,1,2,1,1291,1
211,1,2,2,683,1
211,1,2,3,884,1
211,1,2,4,1363,1
211,1,2,5,826,1
211,1,2,6,684,1
211,1,2,7,660,1
211,1,2,8,485,1
211,1,2,9,478,1
211,1,2,10,639,1
211,1,2,11,537,1
211,1,2,12,535,1
211,1,2,13,654,1
211,1,2,14,727,1
211,1,2,15,726,1
211,1,2,16,653,1
211,1,2,17,638,1
211,1,2,18,648,1
211,1,2,19,714,1
211,1,2,20,618,1
211,1,2,21,908,1
211,1,2,22,765,1
211,1,2,23,378,1
211,1,2,24,535,1
211,1,2,25,645,1
211,1,2,26,559,1
211,1,2,27,501,1
211,1,2,28,644,1
211,1,2,29,1158,0
211,1,2,30,746,1
211,1,2,31,585,1
211,1,2,32,885,1
211,1,2,33,645,1
211,1,2,34,647,1
211,1,2,35,377,1
211,1,2,36,566,1
211,1,2,37,634,1
211,1,2,38,677,1
211,1,2,39,670,1
211,1,2,40,550,1
206,2,1,1,1395,1
206,2,1,2,1188,1
206,2,1,3,758,1
206,2,1,4,2121,1
206,2,1,5,843,1
206,2,1,6,883,1
206,2,1,7,1177,1
206,2,1,8,1027,1
206,2,1,9,1067,1
206,2,1,10,1234,1
206,2,1,11,992,1
206,2,1,12,770,1
206,2,1,13,741,1
206,2,1,14,705,1
206,2,1,15,679,1
206,2,1,16,670,1
206,2,1,17,725,1
206,2,1,18,1505,1
206,2,1,19,622,1
206,2,1,20,719,1
206,2,1,21,763,1
206,2,1,22,791,1
206,2,1,23,865,1
206,2,1,24,855,1
206,2,1,25,503,1
206,2,1,26,877,1
206,2,1,27,707,1
206,2,1,28,1000,1
206,2,1,29,802,1
206,2,1,30,602,1
206,2,1,31,541,1
206,2,1,32,625,1
206,2,1,33,826,1
206,2,1,34,707,1
206,2,1,35,600,1
206,2,1,36,642,1
206,2,1,37,626,1
206,2,1,38,867,1
206,2,1,39,674,1
206,2,1,40,744,1
206,2,2,1,697,1
206,2,2,2,1415,1
206,2,2,3,736,1
206,2,2,4,1051,1
206,2,2,5,778,1
206,2,2,6,933,1
206,2,2,7,617,1
206,2,2,8,578,1
206,2,2,9,909,1
206,2,2,10,866,1
206,2,2,11,672,1
206,2,2,12,888,1
206,2,2,13,597,1
206,2,2,14,815,1
206,2,2,15,616,1
206,2,2,16,777,1
206,2,2,17,811,1
206,2,2,18,829,1
206,2,2,19,869,1
206,2,2,20,716,1
206,2,2,21,721,1
206,2,2,22,1141,1
206,2,2,23,521,1
206,2,2,24,646,1
206,2,2,25,686,1
206,2,2,26,1357,1
206,2,2,27,607,1
206,2,2,28,961,1
206,2,2,29,891,1
206,2,2,30,706,1
206,2,2,31,639,1
206,2,2,32,687,1
206,2,2,33,718,1
206,2,2,34,699,1
206,2,2,35,585,1
206,2,2,36,1115,1
206,2,2,37,911,1
206,2,2,38,1004,1
206,2,2,39,605,1
206,2,2,40,839,1
202,2,1,1,572,1
202,2,1,2,654,1
202,2,1,3,524,1
202,2,1,4,527,1
202,2,1,5,508,1
202,2,1,6,678,1
202,2,1,7,548,1
202,2,1,8,539,1
202,2,1,9,424,1
202,2,1,10,538,1
202,2,1,11,895,1
202,2,1,12,652,1
202,2,1,13,489,1
202,2,1,14,546,1
202,2,1,15,682,1
202,2,1,16,490,1
202,2,1,17,699,1
202,2,1,18,612,1
202,2,1,19,458,1
202,2,1,20,378,1
202,2,1,21,454,1
202,2,1,22,475,1
202,2,1,23,486,1
202,2,1,24,648,1
202,2,1,25,515,1
202,2,1,26,658,1
202,2,1,27,402,1
202,2,1,28,472,1
202,2,1,29,495,1
202,2,1,30,373,1
202,2,1,31,560,1
202,2,1,32,509,1
202,2,1,33,584,1
202,2,1,34,709,1
202,2,1,35,383,1
202,2,1,36,630,1
202,2,1,37,578,1
202,2,1,38,713,1
202,2,1,39,620,1
202,2,1,40,559,1
202,2,2,1,860,1
202,2,2,2,772,1
202,2,2,3,599,1
202,2,2,4,361,1
202,2,2,5,582,1
202,2,2,6,691,1
202,2,2,7,443,1
202,2,2,8,832,1
202,2,2,9,504,1
202,2,2,10,1143,0
202,2,2,11,605,1
202,2,2,12,575,1
202,2,2,13,381,1
202,2,2,14,675,1
202,2,2,15,382,1
202,2,2,16,450,1
202,2,2,17,555,1
202,2,2,18,865,1
202,2,2,19,552,1
202,2,2,20,882,1
202,2,2,21,553,1
202,2,2,22,718,1
202,2,2,23,855,1
202,2,2,24,666,1
202,2,2,25,572,1
202,2,2,26,646,1
202,2,2,27,590,1
202,2,2,28,722,1
202,2,2,29,697,1
202,2,2,30,730,1
202,2,2,31,694,1
202,2,2,32,665,1
202,2,2,33,625,1
202,2,2,34,674,1
202,2,2,35,614,1
202,2,2,36,525,1
202,2,2,37,608,1
202,2,2,38,720,1
202,2,2,39,572,1
202,2,2,40,931,1
199,1,1,1,1183,1
199,1,1,2,706,1
199,1,1,3,701,1
199,1,1,4,620,1
199,1,1,5,772,1
199,1,1,6,719,1
199,1,1,7,629,1
199,1,1,8,602,1
199,1,1,9,1019,1
199,1,1,10,611,1
199,1,1,11,658,1
199,1,1,12,603,1
199,1,1,13,648,1
199,1,1,14,599,1
199,1,1,15,653,1
199,1,1,16,605,1
199,1,1,17,675,1
199,1,1,18,610,1
199,1,1,19,658,1
199,1,1,20,692,1
199,1,1,21,617,1
199,1,1,22,618,1
199,1,1,23,632,1
199,1,1,24,587,1
199,1,1,25,595,1
199,1,1,26,544,1
199,1,1,27,563,1
199,1,1,28,594,1
199,1,1,29,564,1
199,1,1,30,501,1
199,1,1,31,586,1
199,1,1,32,664,1
199,1,1,33,638,1
199,1,1,34,536,1
199,1,1,35,654,1
199,1,1,36,578,1
199,1,1,37,599,1
199,1,1,38,550,1
199,1,1,39,810,1
199,1,1,40,631,1
199,1,2,1,1118,1
199,1,2,2,895,1
199,1,2,3,1303,1
199,1,2,4,1204,1
199,1,2,5,1167,1
199,1,2,6,1188,1
199,1,2,7,782,1
199,1,2,8,919,1
199,1,2,9,835,1
199,1,2,10,1126,1
199,1,2,11,808,1
199,1,2,12,838,1
199,1,2,13,2767,0
199,1,2,14,1180,1
199,1,2,15,876,1
199,1,2,16,781,1
199,1,2,17,884,1
199,1,2,18,1153,1
199,1,2,19,993,1
199,1,2,20,1397,1
199,1,2,21,775,1
199,1,2,22,1175,1
199,1,2,23,1028,1
199,1,2,24,1059,1
199,1,2,25,745,1
199,1,2,26,857,1
199,1,2,27,814,1
199,1,2,28,1076,1
199,1,2,29,2446,0
199,1,2,30,1652,1
199,1,2,31,837,1
199,1,2,32,1932,1
199,1,2,33,727,1
199,1,2,34,842,1
199,1,2,35,751,1
199,1,2,36,897,1
199,1,2,37,818,1
199,1,2,38,943,1
199,1,2,39,811,1
199,1,2,40,900,1
201,1,1,1,502,1
201,1,1,2,389,1
201,1,1,3,425,1
201,1,1,4,475,1
201,1,1,5,460,1
201,1,1,6,558,1
201,1,1,7,427,1
201,1,1,8,365,1
201,1,1,9,434,1
201,1,1,10,452,1
201,1,1,11,374,1
201,1,1,12,426,1
201,1,1,13,573,1
201,1,1,14,474,1
201,1,1,15,490,1
201,1,1,16,458,1
201,1,1,17,459,1
201,1,1,18,557,1
201,1,1,19,474,1
201,1,1,20,411,1
201,1,1,21,494,1
201,1,1,22,494,1
201,1,1,23,414,1
201,1,1,24,1009,0
201,1,1,25,524,1
201,1,1,26,459,1
201,1,1,27,428,1
201,1,1,28,687,1
201,1,1,29,423,1
201,1,1,30,506,1
201,1,1,31,505,1
201,1,1,32,968,0
201,1,1,33,548,1
201,1,1,34,530,1
201,1,1,35,480,1
201,1,1,36,577,1
201,1,1,37,478,1
201,1,1,38,414,1
201,1,1,39,450,1
201,1,1,40,851,0
201,1,2,1,809,1
201,1,2,2,572,1
201,1,2,3,521,1
201,1,2,4,680,1
201,1,2,5,480,1
201,1,2,6,593,1
201,1,2,7,621,1
201,1,2,8,504,1
201,1,2,9,455,1
201,1,2,10,472,1
201,1,2,11,761,1
201,1,2,12,670,1
201,1,2,13,807,1
201,1,2,14,618,1
201,1,2,15,421,1
201,1,2,16,632,1
201,1,2,17,529,1
201,1,2,18,432,1
201,1,2,19,562,1
201,1,2,20,464,1
201,1,2,21,657,1
201,1,2,22,442,1
201,1,2,23,508,1
201,1,2,24,652,1
201,1,2,25,517,1
201,1,2,26,596,1
201,1,2,27,528,1
201,1,2,28,558,1
201,1,2,29,556,1
201,1,2,30,585,1
201,1,2,31,613,1
201,1,2,32,592,1
201,1,2,33,524,1
201,1,2,34,443,1
201,1,2,35,717,1
201,1,2,36,484,1
201,1,2,37,403,1
201,1,2,38,407,1
201,1,2,39,618,1
201,1,2,40,453,1
195,1,1,1,660,1
195,1,1,2,467,1
195,1,1,3,577,1
195,1,1,4,470,1
195,1,1,5,445,1
195,1,1,6,507,1
195,1,1,7,463,1
195,1,1,8,513,1
195,1,1,9,464,1
195,1,1,10,433,1
195,1,1,11,667,1
195,1,1,12,537,1
195,1,1,13,475,1
195,1,1,14,584,1
195,1,1,15,484,1
195,1,1,16,473,1
195,1,1,17,552,1
195,1,1,18,471,1
195,1,1,19,737,1
195,1,1,20,559,1
195,1,1,21,665,1
195,1,1,22,621,1
195,1,1,23,980,0
195,1,1,24,563,1
195,1,1,25,538,1
195,1,1,26,701,1
195,1,1,27,658,1
195,1,1,28,739,1
195,1,1,29,537,1
195,1,1,30,538,1
195,1,1,31,484,1
195,1,1,32,483,1
195,1,1,33,616,1
195,1,1,34,612,1
195,1,1,35,491,1
195,1,1,36,466,1
195,1,1,37,570,1
195,1,1,38,516,1
195,1,1,39,483,1
195,1,1,40,405,1
195,1,2,1,631,1
195,1,2,2,1006,1
195,1,2,3,1252,1
195,1,2,4,715,1
195,1,2,5,679,1
195,1,2,6,906,1
195,1,2,7,1139,1
195,1,2,8,1130,1
195,1,2,9,612,1
195,1,2,10,739,1
195,1,2,11,536,1
195,1,2,12,864,1
195,1,2,13,642,1
195,1,2,14,496,1
195,1,2,15,508,1
195,1,2,16,785,1
195,1,2,17,662,1
195,1,2,18,902,1
195,1,2,19,682,1
195,1,2,20,742,1
195,1,2,21,782,1
195,1,2,22,1088,1
195,1,2,23,807,1
195,1,2,24,1411,0
195,1,2,25,635,1
195,1,2,26,1050,1
195,1,2,27,594,1
195,1,2,28,804,1
195,1,2,29,612,1
195,1,2,30,1024,0
195,1,2,31,614,1
195,1,2,32,809,1
195,1,2,33,568,1
195,1,2,34,639,1
195,1,2,35,652,1
195,1,2,36,461,1
195,1,2,37,442,1
195,1,2,38,480,1
195,1,2,39,579,1
195,1,2,40,805,1
198,2,1,1,486,1
198,2,1,2,355,1
198,2,1,3,507,1
198,2,1,4,382,1
198,2,1,5,363,1
198,2,1,6,398,1
198,2,1,7,396,1
198,2,1,8,955,0
198,2,1,9,787,0
198,2,1,10,469,1
198,2,1,11,445,1
198,2,1,12,404,1
198,2,1,13,456,1
198,2,1,14,390,1
198,2,1,15,384,1
198,2,1,16,387,1
198,2,1,17,415,1
198,2,1,18,466,1
198,2,1,19,382,1
198,2,1,20,661,0
198,2,1,21,495,1
198,2,1,22,412,1
198,2,1,23,391,1
198,2,1,24,421,1
198,2,1,25,366,1
198,2,1,26,459,1
198,2,1,27,384,1
198,2,1,28,371,1
198,2,1,29,383,1
198,2,1,30,396,1
198,2,1,31,419,1
198,2,1,32,420,1
198,2,1,33,462,1
198,2,1,34,347,1
198,2,1,35,390,1
198,2,1,36,342,1
198,2,1,37,717,0
198,2,1,38,798,1
198,2,1,39,439,1
198,2,1,40,508,1
198,2,2,1,676,1
198,2,2,2,2181,0
198,2,2,3,797,1
198,2,2,4,632,1
198,2,2,5,866,0
198,2,2,6,1568,0
198,2,2,7,643,1
198,2,2,8,605,1
198,2,2,9,499,1
198,2,2,10,521,1
198,2,2,11,554,1
198,2,2,12,460,1
198,2,2,13,463,1
198,2,2,14,819,0
198,2,2,15,1040,1
198,2,2,16,578,1
198,2,2,17,557,1
198,2,2,18,684,1
198,2,2,19,674,0
198,2,2,20,648,1
198,2,2,21,525,1
198,2,2,22,747,1
198,2,2,23,554,1
198,2,2,24,493,1
198,2,2,25,872,1
198,2,2,26,924,0
198,2,2,27,617,1
198,2,2,28,712,1
198,2,2,29,536,1
198,2,2,30,649,1
198,2,2,31,653,1
198,2,2,32,684,1
198,2,2,33,463,1
198,2,2,34,492,1
198,2,2,35,462,1
198,2,2,36,441,1
198,2,2,37,372,1
198,2,2,38,428,1
198,2,2,39,442,1
198,2,2,40,464,1
194,2,1,1,711,1
194,2,1,2,425,1
194,2,1,3,309,1
194,2,1,4,390,1
194,2,1,5,316,1
194,2,1,6,524,1
194,2,1,7,340,1
194,2,1,8,348,1
194,2,1,9,339,1
194,2,1,10,346,1
194,2,1,11,409,1
194,2,1,12,1670,0
194,2,1,13,411,1
194,2,1,14,384,1
194,2,1,15,398,1
194,2,1,16,394,1
194,2,1,17,376,1
194,2,1,18,407,1
194,2,1,19,403,1
194,2,1,20,400,1
194,2,1,21,311,1
194,2,1,22,375,1
194,2,1,23,413,1
194,2,1,24,369,1
194,2,1,25,327,1
194,2,1,26,383,1
194,2,1,27,1045,0
194,2,1,28,890,0
194,2,1,29,476,1
194,2,1,30,470,1
194,2,1,31,465,1
194,2,1,32,419,1
194,2,1,33,488,1
194,2,1,34,450,1
194,2,1,35,413,1
194,2,1,36,458,1
194,2,1,37,492,1
194,2,1,38,286,1
194,2,1,39,376,1
194,2,1,40,382,1
194,2,2,1,573,1
194,2,2,2,1124,0
194,2,2,3,397,1
194,2,2,4,450,1
194,2,2,5,358,1
194,2,2,6,316,1
194,2,2,7,404,1
194,2,2,8,417,1
194,2,2,9,365,1
194,2,2,10,324,1
194,2,2,11,412,1
194,2,2,12,537,1
194,2,2,13,472,1
194,2,2,14,955,0
194,2,2,15,555,1
194,2,2,16,419,1
194,2,2,17,358,1
194,2,2,18,726,0
194,2,2,19,542,1
194,2,2,20,798,0
194,2,2,21,555,1
194,2,2,22,707,1
194,2,2,23,501,1
194,2,2,24,381,1
194,2,2,25,436,1
194,2,2,26,551,1
194,2,2,27,414,1
194,2,2,28,635,1
194,2,2,29,607,1
194,2,2,30,477,1
194,2,2,31,391,1
194,2,2,32,613,1
194,2,2,33,473,1
194,2,2,34,588,1
194,2,2,35,346,1
194,2,2,36,809,0
194,2,2,37,503,1
194,2,2,38,1103,0
194,2,2,39,602,1
194,2,2,40,463,1
184,2,1,1,1225,1
184,2,1,2,1001,1
184,2,1,3,1359,1
184,2,1,4,661,1
184,2,1,5,591,1
184,2,1,6,708,1
184,2,1,7,731,1
184,2,1,8,522,1
184,2,1,9,698,1
184,2,1,10,634,1
184,2,1,11,708,1
184,2,1,12,820,1
184,2,1,13,919,1
184,2,1,14,814,1
184,2,1,15,810,1
184,2,1,16,733,1
184,2,1,17,644,1
184,2,1,18,910,1
184,2,1,19,1206,0
184,2,1,20,625,1
184,2,1,21,540,1
184,2,1,22,570,1
184,2,1,23,639,1
184,2,1,24,513,1
184,2,1,25,585,1
184,2,1,26,621,1
184,2,1,27,880,1
184,2,1,28,754,1
184,2,1,29,862,1
184,2,1,30,665,1
184,2,1,31,481,1
184,2,1,32,674,1
184,2,1,33,611,1
184,2,1,34,735,1
184,2,1,35,725,1
184,2,1,36,628,1
184,2,1,37,559,1
184,2,1,38,557,1
184,2,1,39,723,1
184,2,1,40,618,1
184,2,2,1,1245,1
184,2,2,2,872,1
184,2,2,3,584,1
184,2,2,4,997,1
184,2,2,5,1322,1
184,2,2,6,577,1
184,2,2,7,750,1
184,2,2,8,996,1
184,2,2,9,593,1
184,2,2,10,1557,0
184,2,2,11,513,1
184,2,2,12,793,1
184,2,2,13,550,1
184,2,2,14,531,1
184,2,2,15,578,1
184,2,2,16,518,1
184,2,2,17,525,1
184,2,2,18,668,1
184,2,2,19,1021,0
184,2,2,20,775,1
184,2,2,21,725,1
184,2,2,22,827,1
184,2,2,23,702,1
184,2,2,24,534,1
184,2,2,25,621,1
184,2,2,26,776,1
184,2,2,27,499,1
184,2,2,28,875,1
184,2,2,29,619,1
184,2,2,30,728,1
184,2,2,31,648,1
184,2,2,32,730,1
184,2,2,33,697,1
184,2,2,34,793,1
184,2,2,35,654,1
184,2,2,36,655,1
184,2,2,37,481,1
184,2,2,38,690,1
184,2,2,39,891,1
184,2,2,40,779,1
188,2,1,1,1022,1
188,2,1,2,819,1
188,2,1,3,620,1
188,2,1,4,622,1
188,2,1,5,741,1
188,2,1,6,661,1
188,2,1,7,740,1
188,2,1,8,777,1
188,2,1,9,723,1
188,2,1,10,670,1
188,2,1,11,671,1
188,2,1,12,665,1
188,2,1,13,705,1
188,2,1,14,626,1
188,2,1,15,745,1
188,2,1,16,743,1
188,2,1,17,703,1
188,2,1,18,663,1
188,2,1,19,703,1
188,2,1,20,625,1
188,2,1,21,704,1
188,2,1,22,743,1
188,2,1,23,741,1
188,2,1,24,584,1
188,2,1,25,781,1
188,2,1,26,584,1
188,2,1,27,626,1
188,2,1,28,589,1
188,2,1,29,669,1
188,2,1,30,709,1
188,2,1,31,747,1
188,2,1,32,824,1
188,2,1,33,781,1
188,2,1,34,591,1
188,2,1,35,594,1
188,2,1,36,622,1
188,2,1,37,675,1
188,2,1,38,676,1
188,2,1,39,663,1
188,2,1,40,586,1
188,2,2,1,955,1
188,2,2,2,701,1
188,2,2,3,623,1
188,2,2,4,625,1
188,2,2,5,600,1
188,2,2,6,940,1
188,2,2,7,830,1
188,2,2,8,787,1
188,2,2,9,746,1
188,2,2,10,822,1
188,2,2,11,741,1
188,2,2,12,713,1
188,2,2,13,777,1
188,2,2,14,944,1
188,2,2,15,665,1
188,2,2,16,1528,0
188,2,2,17,624,1
188,2,2,18,704,1
188,2,2,19,703,1
188,2,2,20,703,1
188,2,2,21,663,1
188,2,2,22,664,1
188,2,2,23,593,1
188,2,2,24,1167,0
188,2,2,25,700,1
188,2,2,26,700,1
188,2,2,27,583,1
188,2,2,28,624,1
188,2,2,29,665,1
188,2,2,30,899,1
188,2,2,31,621,1
188,2,2,32,623,1
188,2,2,33,586,1
188,2,2,34,588,1
188,2,2,35,630,1
188,2,2,36,671,1
188,2,2,37,788,1
188,2,2,38,1136,1
188,2,2,39,592,1
188,2,2,40,621,1
191,1,1,1,855,1
191,1,1,2,855,1
191,1,1,3,672,1
191,1,1,4,608,1
191,1,1,5,571,1
191,1,1,6,488,1
191,1,1,7,1088,0
191,1,1,8,775,1
191,1,1,9,460,1
191,1,1,10,597,1
191,1,1,11,648,1
191,1,1,12,729,1
191,1,1,13,599,1
191,1,1,14,522,1
191,1,1,15,528,1
191,1,1,16,654,1
191,1,1,17,576,1
191,1,1,18,710,1
191,1,1,19,507,1
191,1,1,20,442,1
191,1,1,21,620,1
191,1,1,22,399,1
191,1,1,23,450,1
191,1,1,24,611,1
191,1,1,25,982,0
191,1,1,26,761,1
191,1,1,27,607,1
191,1,1,28,570,1
191,1,1,29,686,1
191,1,1,30,526,1
191,1,1,31,485,1
191,1,1,32,516,1
191,1,1,33,603,1
191,1,1,34,638,1
191,1,1,35,728,1
191,1,1,36,646,1
191,1,1,37,823,1
191,1,1,38,601,1
191,1,1,39,620,1
191,1,1,40,519,1
191,1,2,1,2154,1
191,1,2,2,1087,1
191,1,2,3,735,1
191,1,2,4,765,1
191,1,2,5,697,1
191,1,2,6,728,1
191,1,2,7,911,1
191,1,2,8,1028,1
191,1,2,9,1454,1
191,1,2,10,919,1
191,1,2,11,1014,1
191,1,2,12,896,1
191,1,2,13,999,1
191,1,2,14,618,1
191,1,2,15,789,1
191,1,2,16,696,1
191,1,2,17,1003,1
191,1,2,18,1019,1
191,1,2,19,661,1
191,1,2,20,814,1
191,1,2,21,737,1
191,1,2,22,2390,1
191,1,2,23,770,1
191,1,2,24,838,1
191,1,2,25,840,1
191,1,2,26,666,1
191,1,2,27,683,1
191,1,2,28,786,1
191,1,2,29,854,1
191,1,2,30,967,1
191,1,2,31,677,1
191,1,2,32,1236,1
191,1,2,33,542,1
191,1,2,34,900,1
191,1,2,35,755,1
191,1,2,36,968,1
191,1,2,37,693,1
191,1,2,38,860,1
191,1,2,39,621,1
191,1,2,40,672,1
190,2,1,1,1523,1
190,2,1,2,747,1
190,2,1,3,621,1
190,2,1,4,543,1
190,2,1,5,567,1
190,2,1,6,1037,1
190,2,1,7,589,1
190,2,1,8,615,1
190,2,1,9,572,1
190,2,1,10,611,1
190,2,1,11,568,1
190,2,1,12,686,1
190,2,1,13,669,1
190,2,1,14,894,1
190,2,1,15,646,1
190,2,1,16,938,1
190,2,1,17,646,1
190,2,1,18,908,1
190,2,1,19,596,1
190,2,1,20,694,1
190,2,1,21,598,1
190,2,1,22,844,1
190,2,1,23,656,1
190,2,1,24,943,1
190,2,1,25,722,1
190,2,1,26,864,1
190,2,1,27,834,1
190,2,1,28,1011,1
190,2,1,29,1033,1
190,2,1,30,676,1
190,2,1,31,646,1
190,2,1,32,723,1
190,2,1,33,833,1
190,2,1,34,813,1
190,2,1,35,611,1
190,2,1,36,799,1
190,2,1,37,886,1
190,2,1,38,709,1
190,2,1,39,758,1
190,2,1,40,691,1
190,2,2,1,628,1
190,2,2,2,942,1
190,2,2,3,968,1
190,2,2,4,934,1
190,2,2,5,692,1
190,2,2,6,624,1
190,2,2,7,764,1
190,2,2,8,553,1
190,2,2,9,636,1
190,2,2,10,653,1
190,2,2,11,796,1
190,2,2,12,886,1
190,2,2,13,900,1
190,2,2,14,861,1
190,2,2,15,695,1
190,2,2,16,797,1
190,2,2,17,589,1
190,2,2,18,815,1
190,2,2,19,619,1
190,2,2,20,663,1
190,2,2,21,873,1
190,2,2,22,705,1
190,2,2,23,603,1
190,2,2,24,786,1
190,2,2,25,612,1
190,2,2,26,931,1
190,2,2,27,833,1
190,2,2,28,746,1
190,2,2,29,740,1
190,2,2,30,791,1
190,2,2,31,576,1
190,2,2,32,783,1
190,2,2,33,576,1
190,2,2,34,840,1
190,2,2,35,604,1
190,2,2,36,1986,1
190,2,2,37,844,1
190,2,2,38,652,1
190,2,2,39,568,1
190,2,2,40,790,1
186,2,1,1,580,1
186,2,1,2,439,1
186,2,1,3,360,1
186,2,1,4,333,1
186,2,1,5,737,0
186,2,1,6,397,1
186,2,1,7,488,1
186,2,1,8,777,0
186,2,1,9,529,1
186,2,1,10,454,1
186,2,1,11,486,1
186,2,1,12,524,1
186,2,1,13,594,1
186,2,1,14,364,1
186,2,1,15,440,1
186,2,1,16,401,1
186,2,1,17,355,1
186,2,1,18,759,0
186,2,1,19,466,1
186,2,1,20,513,1
186,2,1,21,528,1
186,2,1,22,604,1
186,2,1,23,406,1
186,2,1,24,441,1
186,2,1,25,401,1
186,2,1,26,380,1
186,2,1,27,503,1
186,2,1,28,365,1
186,2,1,29,384,1
186,2,1,30,499,1
186,2,1,31,714,0
186,2,1,32,430,1
186,2,1,33,408,1
186,2,1,34,506,1
186,2,1,35,368,1
186,2,1,36,451,1
186,2,1,37,820,0
186,2,1,38,659,0
186,2,1,39,426,1
186,2,1,40,429,1
186,2,2,1,422,1
186,2,2,2,744,0
186,2,2,3,467,1
186,2,2,4,387,1
186,2,2,5,406,1
186,2,2,6,528,1
186,2,2,7,389,1
186,2,2,8,432,1
186,2,2,9,329,1
186,2,2,10,447,1
186,2,2,11,623,0
186,2,2,12,528,1
186,2,2,13,829,0
186,2,2,14,477,1
186,2,2,15,461,1
186,2,2,16,453,1
186,2,2,17,453,1
186,2,2,18,444,1
186,2,2,19,725,0
186,2,2,20,786,0
186,2,2,21,611,0
186,2,2,22,468,1
186,2,2,23,651,1
186,2,2,24,875,1
186,2,2,25,450,1
186,2,2,26,467,1
186,2,2,27,369,1
186,2,2,28,373,1
186,2,2,29,385,1
186,2,2,30,691,1
186,2,2,31,442,1
186,2,2,32,474,1
186,2,2,33,674,1
186,2,2,34,657,1
186,2,2,35,921,1
186,2,2,36,566,1
186,2,2,37,480,1
186,2,2,38,592,0
186,2,2,39,537,1
186,2,2,40,502,1
169,1,1,1,588,1
169,1,1,2,500,1
169,1,1,3,415,1
169,1,1,4,363,1
169,1,1,5,385,1
169,1,1,6,398,1
169,1,1,7,403,1
169,1,1,8,416,1
169,1,1,9,1328,0
169,1,1,10,578,1
169,1,1,11,503,1
169,1,1,12,482,1
169,1,1,13,343,1
169,1,1,14,511,1
169,1,1,15,475,1
169,1,1,16,461,1
169,1,1,17,458,1
169,1,1,18,561,1
169,1,1,19,941,1
169,1,1,20,546,1
169,1,1,21,498,1
169,1,1,22,459,1
169,1,1,23,460,1
169,1,1,24,526,1
169,1,1,25,481,1
169,1,1,26,525,1
169,1,1,27,459,1
169,1,1,28,430,1
169,1,1,29,977,0
169,1,1,30,528,1
169,1,1,31,526,1
169,1,1,32,454,1
169,1,1,33,446,1
169,1,1,34,525,1
169,1,1,35,526,1
169,1,1,36,594,1
169,1,1,37,645,1
169,1,1,38,739,1
169,1,1,39,437,1
169,1,1,40,387,1
169,1,2,1,1009,1
169,1,2,2,525,1
169,1,2,3,656,1
169,1,2,4,709,1
169,1,2,5,653,1
169,1,2,6,497,1
169,1,2,7,589,1
169,1,2,8,1410,1
169,1,2,9,721,1
169,1,2,10,760,1
169,1,2,11,719,1
169,1,2,12,591,1
169,1,2,13,553,1
169,1,2,14,411,1
169,1,2,15,599,1
169,1,2,16,700,1
169,1,2,17,810,1
169,1,2,18,880,1
169,1,2,19,752,1
169,1,2,20,946,1
169,1,2,21,772,1
169,1,2,22,662,1
169,1,2,23,586,1
169,1,2,24,654,1
169,1,2,25,602,1
169,1,2,26,747,1
169,1,2,27,589,1
169,1,2,28,638,1
169,1,2,29,628,1
169,1,2,30,695,1
169,1,2,31,821,1
169,1,2,32,788,1
169,1,2,33,618,1
169,1,2,34,703,1
169,1,2,35,814,1
169,1,2,36,882,1
169,1,2,37,632,1
169,1,2,38,833,1
169,1,2,39,933,1
169,1,2,40,791,1
96,2,1,1,840,1
96,2,1,2,994,1
96,2,1,3,575,1
96,2,1,4,655,1
96,2,1,5,665,1
96,2,1,6,770,1
96,2,1,7,558,1
96,2,1,8,532,1
96,2,1,9,632,1
96,2,1,10,513,1
96,2,1,11,536,1
96,2,1,12,414,1
96,2,1,13,466,1
96,2,1,14,602,1
96,2,1,15,475,1
96,2,1,16,587,1
96,2,1,17,623,1
96,2,1,18,618,1
96,2,1,19,509,1
96,2,1,20,405,1
96,2,1,21,502,1
96,2,1,22,404,1
96,2,1,23,401,1
96,2,1,24,411,1
96,2,1,25,455,1
96,2,1,26,472,1
96,2,1,27,522,1
96,2,1,28,518,1
96,2,1,29,484,1
96,2,1,30,436,1
96,2,1,31,518,1
96,2,1,32,406,1
96,2,1,33,608,1
96,2,1,34,457,1
96,2,1,35,754,1
96,2,1,36,800,1
96,2,1,37,498,1
96,2,1,38,786,1
96,2,1,39,396,1
96,2,1,40,480,1
96,2,2,1,805,1
96,2,2,2,726,1
96,2,2,3,557,1
96,2,2,4,513,1
96,2,2,5,440,1
96,2,2,6,851,1
96,2,2,7,442,1
96,2,2,8,419,1
96,2,2,9,662,1
96,2,2,10,497,1
96,2,2,11,488,1
96,2,2,12,639,1
96,2,2,13,375,1
96,2,2,14,404,1
96,2,2,15,631,1
96,2,2,16,490,1
96,2,2,17,1017,0
96,2,2,18,1532,1
96,2,2,19,463,1
96,2,2,20,785,1
96,2,2,21,620,1
96,2,2,22,744,1
96,2,2,23,466,1
96,2,2,24,986,1
96,2,2,25,639,1
96,2,2,26,609,1
96,2,2,27,645,1
96,2,2,28,939,1
96,2,2,29,730,1
96,2,2,30,753,1
96,2,2,31,823,1
96,2,2,32,978,1
96,2,2,33,538,1
96,2,2,34,856,1
96,2,2,35,402,1
96,2,2,36,541,1
96,2,2,37,388,1
96,2,2,38,452,1
96,2,2,39,430,1
96,2,2,40,521,1
95,1,1,1,484,1
95,1,1,2,372,1
95,1,1,3,361,1
95,1,1,4,374,1
95,1,1,5,403,1
95,1,1,6,391,1
95,1,1,7,434,1
95,1,1,8,477,1
95,1,1,9,485,1
95,1,1,10,621,1
95,1,1,11,456,1
95,1,1,12,417,1
95,1,1,13,380,1
95,1,1,14,593,1
95,1,1,15,541,1
95,1,1,16,579,1
95,1,1,17,511,1
95,1,1,18,470,1
95,1,1,19,527,1
95,1,1,20,454,1
95,1,1,21,511,1
95,1,1,22,471,1
95,1,1,23,567,1
95,1,1,24,524,1
95,1,1,25,1275,0
95,1,1,26,594,1
95,1,1,27,518,1
95,1,1,28,430,1
95,1,1,29,488,1
95,1,1,30,512,1
95,1,1,31,480,1
95,1,1,32,528,1
95,1,1,33,487,1
95,1,1,34,471,1
95,1,1,35,536,1
95,1,1,36,1134,1
95,1,1,37,516,1
95,1,1,38,506,1
95,1,1,39,562,1
95,1,1,40,639,1
95,1,2,1,1655,0
95,1,2,2,568,1
95,1,2,3,404,1
95,1,2,4,455,1
95,1,2,5,465,1
95,1,2,6,410,1
95,1,2,7,582,1
95,1,2,8,466,1
95,1,2,9,779,0
95,1,2,10,583,1
95,1,2,11,595,1
95,1,2,12,447,1
95,1,2,13,425,1
95,1,2,14,532,1
95,1,2,15,666,1
95,1,2,16,547,1
95,1,2,17,537,1
95,1,2,18,583,1
95,1,2,19,731,0
95,1,2,20,521,1
95,1,2,21,560,1
95,1,2,22,461,1
95,1,2,23,559,1
95,1,2,24,492,1
95,1,2,25,748,1
95,1,2,26,546,1
95,1,2,27,544,1
95,1,2,28,533,1
95,1,2,29,492,1
95,1,2,30,452,1
95,1,2,31,413,1
95,1,2,32,416,1
95,1,2,33,475,1
95,1,2,34,468,1
95,1,2,35,492,1
95,1,2,36,501,1
95,1,2,37,523,1
95,1,2,38,467,1
95,1,2,39,875,0
95,1,2,40,555,1
179,1,1,1,650,1
179,1,1,2,508,1
179,1,1,3,755,1
179,1,1,4,442,1
179,1,1,5,514,1
179,1,1,6,450,1
179,1,1,7,507,1
179,1,1,8,522,1
179,1,1,9,497,1
179,1,1,10,985,1
179,1,1,11,437,1
179,1,1,12,319,1
179,1,1,13,558,1
179,1,1,14,396,1
179,1,1,15,447,1
179,1,1,16,434,1
179,1,1,17,371,1
179,1,1,18,544,1
179,1,1,19,390,1
179,1,1,20,290,1
179,1,1,21,322,1
179,1,1,22,289,1
179,1,1,23,345,1
179,1,1,24,534,1
179,1,1,25,287,1
179,1,1,26,270,1
179,1,1,27,541,1
179,1,1,28,885,0
179,1,1,29,459,1
179,1,1,30,268,1
179,1,1,31,876,1
179,1,1,32,741,0
179,1,1,33,98,1
179,1,1,34,754,1
179,1,1,35,287,1
179,1,1,36,495,1
179,1,1,37,584,1
179,1,1,38,468,1
179,1,1,39,316,1
179,1,1,40,234,1
179,1,2,1,277,0
179,1,2,2,161,0
179,1,2,3,10,1
179,1,2,4,111,0
179,1,2,5,76,1
179,1,2,6,84,1
179,1,2,7,92,1
179,1,2,8,135,0
179,1,2,9,90,1
179,1,2,10,10,1
179,1,2,11,133,0
179,1,2,12,194,0
179,1,2,13,110,1
179,1,2,14,13,1
179,1,2,15,32,1
179,1,2,16,123,0
179,1,2,17,96,1
179,1,2,18,136,0
179,1,2,19,110,1
179,1,2,20,128,0
179,1,2,21,211,0
179,1,2,22,118,0
179,1,2,23,228,0
179,1,2,24,126,1
179,1,2,25,220,0
179,1,2,26,118,0
179,1,2,27,123,0
179,1,2,28,2562,0
179,1,2,29,630,1
179,1,2,30,570,1
179,1,2,31,374,1
179,1,2,32,420,1
179,1,2,33,2534,0
179,1,2,34,1195,1
179,1,2,35,391,1
179,1,2,36,451,1
179,1,2,37,460,1
179,1,2,38,646,1
179,1,2,39,520,1
179,1,2,40,430,1
173,1,1,1,965,1
173,1,1,2,792,1
173,1,1,3,585,1
173,1,1,4,630,1
173,1,1,5,664,1
173,1,1,6,867,1
173,1,1,7,701,1
173,1,1,8,752,1
173,1,1,9,771,1
173,1,1,10,715,1
173,1,1,11,730,1
173,1,1,12,674,1
173,1,1,13,618,1
173,1,1,14,874,1
173,1,1,15,697,1
173,1,1,16,905,1
173,1,1,17,754,1
173,1,1,18,738,1
173,1,1,19,722,1
173,1,1,20,734,1
173,1,1,21,776,1
173,1,1,22,721,1
173,1,1,23,837,1
173,1,1,24,770,1
173,1,1,25,633,1
173,1,1,26,714,1
173,1,1,27,844,1
173,1,1,28,792,1
173,1,1,29,633,1
173,1,1,30,654,1
173,1,1,31,665,1
173,1,1,32,700,1
173,1,1,33,589,1
173,1,1,34,676,1
173,1,1,35,654,1
173,1,1,36,668,1
173,1,1,37,601,1
173,1,1,38,875,1
173,1,1,39,557,1
173,1,1,40,627,1
173,1,2,1,1103,1
173,1,2,2,832,1
173,1,2,3,958,1
173,1,2,4,986,1
173,1,2,5,894,1
173,1,2,6,1127,1
173,1,2,7,860,1
173,1,2,8,797,1
173,1,2,9,956,1
173,1,2,10,816,1
173,1,2,11,852,1
173,1,2,12,1126,1
173,1,2,13,911,1
173,1,2,14,688,1
173,1,2,15,967,1
173,1,2,16,1187,1
173,1,2,17,1007,1
173,1,2,18,1066,1
173,1,2,19,1023,1
173,1,2,20,960,1
173,1,2,21,843,1
173,1,2,22,929,1
173,1,2,23,807,1
173,1,2,24,917,1
173,1,2,25,602,1
173,1,2,26,818,1
173,1,2,27,1144,1
173,1,2,28,850,1
173,1,2,29,925,1
173,1,2,30,973,1
173,1,2,31,873,1
173,1,2,32,797,1
173,1,2,33,1145,1
173,1,2,34,844,1
173,1,2,35,1563,1
173,1,2,36,875,1
173,1,2,37,1013,1
173,1,2,38,1055,1
173,1,2,39,1085,1
173,1,2,40,718,1
166,2,1,1,2650,1
166,2,1,2,1103,1
166,2,1,3,598,1
166,2,1,4,460,1
166,2,1,5,497,1
166,2,1,6,575,1
166,2,1,7,381,1
166,2,1,8,498,1
166,2,1,9,505,1
166,2,1,10,517,1
166,2,1,11,696,1
166,2,1,12,705,1
166,2,1,13,543,1
166,2,1,14,540,1
166,2,1,15,585,1
166,2,1,16,572,1
166,2,1,17,514,1
166,2,1,18,651,1
166,2,1,19,648,1
166,2,1,20,729,1
166,2,1,21,681,1
166,2,1,22,749,1
166,2,1,23,533,1
166,2,1,24,622,1
166,2,1,25,770,1
166,2,1,26,1719,0
166,2,1,27,551,1
166,2,1,28,485,1
166,2,1,29,515,1
166,2,1,30,514,1
166,2,1,31,659,1
166,2,1,32,421,1
166,2,1,33,670,1
166,2,1,34,632,1
166,2,1,35,515,1
166,2,1,36,637,1
166,2,1,37,1053,1
166,2,1,38,513,1
166,2,1,39,654,1
166,2,1,40,724,1
166,2,2,1,1296,1
166,2,2,2,902,1
166,2,2,3,870,1
166,2,2,4,1431,1
166,2,2,5,1196,1
166,2,2,6,1695,1
166,2,2,7,995,1
166,2,2,8,781,1
166,2,2,9,516,1
166,2,2,10,878,1
166,2,2,11,418,1
166,2,2,12,829,1
166,2,2,13,733,1
166,2,2,14,640,1
166,2,2,15,1071,1
166,2,2,16,666,1
166,2,2,17,828,1
166,2,2,18,1015,1
166,2,2,19,626,1
166,2,2,20,978,1
166,2,2,21,1414,1
166,2,2,22,1116,1
166,2,2,23,560,1
166,2,2,24,2383,1
166,2,2,25,817,1
166,2,2,26,798,1
166,2,2,27,602,1
166,2,2,28,1715,1
166,2,2,29,790,1
166,2,2,30,894,1
166,2,2,31,745,1
166,2,2,32,1255,0
166,2,2,33,671,1
166,2,2,34,678,1
166,2,2,35,826,1
166,2,2,36,890,1
166,2,2,37,991,1
166,2,2,38,807,1
166,2,2,39,791,1
166,2,2,40,979,1
137,1,1,1,814,1
137,1,1,2,705,1
137,1,1,3,761,1
137,1,1,4,782,1
137,1,1,5,595,1
137,1,1,6,959,1
137,1,1,7,604,1
137,1,1,8,775,1
137,1,1,9,636,1
137,1,1,10,614,1
137,1,1,11,577,1
137,1,1,12,510,1
137,1,1,13,509,1
137,1,1,14,541,1
137,1,1,15,539,1
137,1,1,16,617,1
137,1,1,17,579,1
137,1,1,18,528,1
137,1,1,19,478,1
137,1,1,20,591,1
137,1,1,21,507,1
137,1,1,22,442,1
137,1,1,23,444,1
137,1,1,24,478,1
137,1,1,25,495,1
137,1,1,26,543,1
137,1,1,27,381,1
137,1,1,28,754,1
137,1,1,29,551,1
137,1,1,30,532,1
137,1,1,31,626,1
137,1,1,32,509,1
137,1,1,33,556,1
137,1,1,34,474,1
137,1,1,35,650,1
137,1,1,36,644,1
137,1,1,37,510,1
137,1,1,38,653,1
137,1,1,39,502,1
137,1,1,40,582,1
137,1,2,1,692,1
137,1,2,2,828,1
137,1,2,3,559,1
137,1,2,4,1388,1
137,1,2,5,776,1
137,1,2,6,1677,1
137,1,2,7,621,1
137,1,2,8,568,1
137,1,2,9,1141,1
137,1,2,10,491,1
137,1,2,11,571,1
137,1,2,12,3175,0
137,1,2,13,811,1
137,1,2,14,719,1
137,1,2,15,741,1
137,1,2,16,507,1
137,1,2,17,619,1
137,1,2,18,581,1
137,1,2,19,850,1
137,1,2,20,579,1
137,1,2,21,512,1
137,1,2,22,879,1
137,1,2,23,496,1
137,1,2,24,848,1
137,1,2,25,914,1
137,1,2,26,1185,0
137,1,2,27,676,1
137,1,2,28,669,1
137,1,2,29,630,1
137,1,2,30,736,1
137,1,2,31,646,1
137,1,2,32,592,1
137,1,2,33,972,1
137,1,2,34,793,1
137,1,2,35,653,1
137,1,2,36,822,1
137,1,2,37,713,1
137,1,2,38,928,1
137,1,2,39,655,1
137,1,2,40,744,1
176,2,1,1,659,1
176,2,1,2,516,1
176,2,1,3,515,1
176,2,1,4,562,1
176,2,1,5,487,1
176,2,1,6,527,1
176,2,1,7,398,1
176,2,1,8,426,1
176,2,1,9,389,1
176,2,1,10,537,1
176,2,1,11,535,1
176,2,1,12,437,1
176,2,1,13,614,1
176,2,1,14,458,1
176,2,1,15,579,1
176,2,1,16,648,1
176,2,1,17,754,1
176,2,1,18,967,1
176,2,1,19,668,1
176,2,1,20,796,1
176,2,1,21,664,1
176,2,1,22,586,1
176,2,1,23,525,1
176,2,1,24,780,1
176,2,1,25,713,1
176,2,1,26,632,1
176,2,1,27,674,1
176,2,1,28,859,1
176,2,1,29,596,1
176,2,1,30,656,1
176,2,1,31,617,1
176,2,1,32,588,1
176,2,1,33,504,1
176,2,1,34,599,1
176,2,1,35,498,1
176,2,1,36,659,1
176,2,1,37,548,1
176,2,1,38,642,1
176,2,1,39,523,1
176,2,1,40,546,1
176,2,2,1,564,1
176,2,2,2,553,1
176,2,2,3,870,1
176,2,2,4,535,1
176,2,2,5,557,1
176,2,2,6,690,1
176,2,2,7,562,1
176,2,2,8,535,1
176,2,2,9,517,1
176,2,2,10,548,1
176,2,2,11,562,1
176,2,2,12,655,1
176,2,2,13,537,1
176,2,2,14,703,1
176,2,2,15,606,1
176,2,2,16,761,1
176,2,2,17,558,1
176,2,2,18,1164,0
176,2,2,19,560,1
176,2,2,20,854,1
176,2,2,21,671,1
176,2,2,22,567,1
176,2,2,23,612,1
176,2,2,24,647,1
176,2,2,25,553,1
176,2,2,26,471,1
176,2,2,27,559,1
176,2,2,28,645,1
176,2,2,29,534,1
176,2,2,30,764,1
176,2,2,31,570,1
176,2,2,32,679,0
176,2,2,33,630,1
176,2,2,34,969,0
176,2,2,35,509,1
176,2,2,36,653,1
176,2,2,37,558,1
176,2,2,38,883,1
176,2,2,39,619,1
176,2,2,40,629,1
170,2,1,1,637,1
170,2,1,2,464,1
170,2,1,3,429,1
170,2,1,4,403,1
170,2,1,5,349,1
170,2,1,6,404,1
170,2,1,7,673,1
170,2,1,8,429,1
170,2,1,9,459,1
170,2,1,10,511,1
170,2,1,11,456,1
170,2,1,12,518,1
170,2,1,13,409,1
170,2,1,14,374,1
170,2,1,15,456,1
170,2,1,16,465,1
170,2,1,17,377,1
170,2,1,18,419,1
170,2,1,19,326,1
170,2,1,20,354,1
170,2,1,21,611,1
170,2,1,22,408,1
170,2,1,23,423,1
170,2,1,24,406,1
170,2,1,25,474,1
170,2,1,26,345,1
170,2,1,27,504,1
170,2,1,28,433,1
170,2,1,29,328,1
170,2,1,30,406,1
170,2,1,31,368,1
170,2,1,32,338,1
170,2,1,33,474,1
170,2,1,34,342,1
170,2,1,35,398,1
170,2,1,36,464,1
170,2,1,37,837,0
170,2,1,38,533,1
170,2,1,39,469,1
170,2,1,40,601,1
170,2,2,1,497,1
170,2,2,2,354,1
170,2,2,3,829,1
170,2,2,4,608,1
170,2,2,5,545,1
170,2,2,6,646,1
170,2,2,7,585,1
170,2,2,8,610,1
170,2,2,9,554,1
170,2,2,10,978,0
170,2,2,11,491,1
170,2,2,12,412,1
170,2,2,13,448,1
170,2,2,14,390,1
170,2,2,15,543,1
170,2,2,16,513,1
170,2,2,17,564,1
170,2,2,18,407,1
170,2,2,19,482,1
170,2,2,20,386,1
170,2,2,21,471,1
170,2,2,22,523,1
170,2,2,23,495,1
170,2,2,24,477,1
170,2,2,25,830,0
170,2,2,26,888,0
170,2,2,27,1061,1
170,2,2,28,612,1
170,2,2,29,660,1
170,2,2,30,549,1
170,2,2,31,443,1
170,2,2,32,381,1
170,2,2,33,566,1
170,2,2,34,714,1
170,2,2,35,422,1
170,2,2,36,642,1
170,2,2,37,781,1
170,2,2,38,659,1
170,2,2,39,498,1
170,2,2,40,475,1
144,2,1,1,948,1
144,2,1,2,768,1
144,2,1,3,501,1
144,2,1,4,411,1
144,2,1,5,437,1
144,2,1,6,558,1
144,2,1,7,451,1
144,2,1,8,427,1
144,2,1,9,437,1
144,2,1,10,454,1
144,2,1,11,399,1
144,2,1,12,531,1
144,2,1,13,464,1
144,2,1,14,361,1
144,2,1,15,413,1
144,2,1,16,512,1
144,2,1,17,407,1
144,2,1,18,433,1
144,2,1,19,434,1
144,2,1,20,460,1
144,2,1,21,428,1
144,2,1,22,430,1
144,2,1,23,400,1
144,2,1,24,411,1
144,2,1,25,397,1
144,2,1,26,1105,0
144,2,1,27,614,1
144,2,1,28,560,1
144,2,1,29,421,1
144,2,1,30,455,1
144,2,1,31,415,1
144,2,1,32,434,1
144,2,1,33,426,1
144,2,1,34,413,1
144,2,1,35,384,1
144,2,1,36,451,1
144,2,1,37,460,1
144,2,1,38,436,1
144,2,1,39,445,1
144,2,1,40,495,1
144,2,2,1,664,1
144,2,2,2,721,1
144,2,2,3,686,1
144,2,2,4,549,1
144,2,2,5,987,1
144,2,2,6,717,1
144,2,2,7,419,1
144,2,2,8,557,1
144,2,2,9,585,1
144,2,2,10,676,1
144,2,2,11,1220,0
144,2,2,12,653,1
144,2,2,13,1389,1
144,2,2,14,800,1
144,2,2,15,602,1
144,2,2,16,460,1
144,2,2,17,453,1
144,2,2,18,582,1
144,2,2,19,649,1
144,2,2,20,579,1
144,2,2,21,648,1
144,2,2,22,655,1
144,2,2,23,568,1
144,2,2,24,619,1
144,2,2,25,701,1
144,2,2,26,732,1
144,2,2,27,505,1
144,2,2,28,552,1
144,2,2,29,604,1
144,2,2,30,607,1
144,2,2,31,697,1
144,2,2,32,592,1
144,2,2,33,651,1
144,2,2,34,579,1
144,2,2,35,655,1
144,2,2,36,456,1
144,2,2,37,632,1
144,2,2,38,674,1
144,2,2,39,570,1
144,2,2,40,613,1
172,2,1,1,785,1
172,2,1,2,623,1
172,2,1,3,943,1
172,2,1,4,538,1
172,2,1,5,482,1
172,2,1,6,521,1
172,2,1,7,498,1
172,2,1,8,616,1
172,2,1,9,592,1
172,2,1,10,440,1
172,2,1,11,537,1
172,2,1,12,565,1
172,2,1,13,495,1
172,2,1,14,515,1
172,2,1,15,472,1
172,2,1,16,522,1
172,2,1,17,509,1
172,2,1,18,566,1
172,2,1,19,546,1
172,2,1,20,543,1
172,2,1,21,472,1
172,2,1,22,494,1
172,2,1,23,491,1
172,2,1,24,572,1
172,2,1,25,476,1
172,2,1,26,484,1
172,2,1,27,569,1
172,2,1,28,488,1
172,2,1,29,453,1
172,2,1,30,506,1
172,2,1,31,424,1
172,2,1,32,489,1
172,2,1,33,408,1
172,2,1,34,590,1
172,2,1,35,502,1
172,2,1,36,511,1
172,2,1,37,485,1
172,2,1,38,619,1
172,2,1,39,524,1
172,2,1,40,421,1
172,2,2,1,870,1
172,2,2,2,788,1
172,2,2,3,1088,1
172,2,2,4,741,1
172,2,2,5,572,1
172,2,2,6,521,1
172,2,2,7,454,1
172,2,2,8,719,1
172,2,2,9,579,1
172,2,2,10,799,1
172,2,2,11,562,1
172,2,2,12,537,1
172,2,2,13,525,1
172,2,2,14,591,1
172,2,2,15,428,1
172,2,2,16,452,1
172,2,2,17,434,1
172,2,2,18,495,1
172,2,2,19,539,1
172,2,2,20,758,1
172,2,2,21,645,1
172,2,2,22,1632,0
172,2,2,23,783,1
172,2,2,24,662,1
172,2,2,25,567,1
172,2,2,26,710,1
172,2,2,27,636,1
172,2,2,28,693,1
172,2,2,29,587,1
172,2,2,30,627,1
172,2,2,31,601,1
172,2,2,32,616,1
172,2,2,33,605,1
172,2,2,34,518,1
172,2,2,35,652,1
172,2,2,36,639,1
172,2,2,37,623,1
172,2,2,38,639,1
172,2,2,39,1014,1
172,2,2,40,598,1
159,1,1,1,2271,1
159,1,1,2,1188,1
159,1,1,3,741,1
159,1,1,4,606,1
159,1,1,5,778,1
159,1,1,6,550,1
159,1,1,7,504,1
159,1,1,8,577,1
159,1,1,9,688,1
159,1,1,10,667,1
159,1,1,11,543,1
159,1,1,12,542,1
159,1,1,13,506,1
159,1,1,14,642,1
159,1,1,15,652,1
159,1,1,16,445,1
159,1,1,17,470,1
159,1,1,18,511,1
159,1,1,19,555,1
159,1,1,20,802,1
159,1,1,21,625,1
159,1,1,22,761,1
159,1,1,23,623,1
159,1,1,24,514,1
159,1,1,25,820,1
159,1,1,26,579,1
159,1,1,27,618,1
159,1,1,28,556,1
159,1,1,29,799,1
159,1,1,30,1050,1
159,1,1,31,793,1
159,1,1,32,681,1
159,1,1,33,602,1
159,1,1,34,721,1
159,1,1,35,575,1
159,1,1,36,606,1
159,1,1,37,689,1
159,1,1,38,728,1
159,1,1,39,950,1
159,1,1,40,582,1
159,1,2,1,2222,1
159,1,2,2,969,1
159,1,2,3,557,1
159,1,2,4,666,1
159,1,2,5,1088,1
159,1,2,6,1232,1
159,1,2,7,992,1
159,1,2,8,824,1
159,1,2,9,841,1
159,1,2,10,1826,0
159,1,2,11,825,1
159,1,2,12,1290,1
159,1,2,13,772,1
159,1,2,14,1217,1
159,1,2,15,727,1
159,1,2,16,1000,1
159,1,2,17,1010,1
159,1,2,18,765,1
159,1,2,19,753,1
159,1,2,20,1167,1
159,1,2,21,1184,1
159,1,2,22,1291,1
159,1,2,23,993,1
159,1,2,24,1654,1
159,1,2,25,1104,1
159,1,2,26,1016,1
159,1,2,27,713,1
159,1,2,28,750,1
159,1,2,29,669,1
159,1,2,30,1891,1
159,1,2,31,830,1
159,1,2,32,1227,1
159,1,2,33,826,1
159,1,2,34,623,1
159,1,2,35,680,1
159,1,2,36,651,1
159,1,2,37,589,1
159,1,2,38,563,1
159,1,2,39,591,1
159,1,2,40,861,1
174,2,1,1,532,1
174,2,1,2,519,1
174,2,1,3,436,1
174,2,1,4,439,1
174,2,1,5,425,1
174,2,1,6,420,1
174,2,1,7,507,1
174,2,1,8,391,1
174,2,1,9,284,1
174,2,1,10,359,1
174,2,1,11,376,1
174,2,1,12,412,1
174,2,1,13,430,1
174,2,1,14,447,1
174,2,1,15,458,1
174,2,1,16,702,0
174,2,1,17,899,0
174,2,1,18,388,1
174,2,1,19,341,1
174,2,1,20,392,1
174,2,1,21,387,1
174,2,1,22,641,1
174,2,1,23,829,0
174,2,1,24,585,1
174,2,1,25,357,1
174,2,1,26,471,1
174,2,1,27,352,1
174,2,1,28,360,1
174,2,1,29,410,1
174,2,1,30,524,1
174,2,1,31,412,1
174,2,1,32,413,1
174,2,1,33,417,1
174,2,1,34,389,1
174,2,1,35,408,1
174,2,1,36,379,1
174,2,1,37,413,1
174,2,1,38,481,1
174,2,1,39,420,1
174,2,1,40,352,1
174,2,2,1,567,1
174,2,2,2,828,1
174,2,2,3,488,1
174,2,2,4,375,1
174,2,2,5,473,1
174,2,2,6,485,1
174,2,2,7,686,1
174,2,2,8,600,1
174,2,2,9,774,1
174,2,2,10,1058,0
174,2,2,11,514,1
174,2,2,12,592,1
174,2,2,13,441,1
174,2,2,14,554,1
174,2,2,15,345,1
174,2,2,16,1047,0
174,2,2,17,422,1
174,2,2,18,769,0
174,2,2,19,765,0
174,2,2,20,474,1
174,2,2,21,471,1
174,2,2,22,883,0
174,2,2,23,776,0
174,2,2,24,680,1
174,2,2,25,647,1
174,2,2,26,577,1
174,2,2,27,593,1
174,2,2,28,361,1
174,2,2,29,765,0
174,2,2,30,817,0
174,2,2,31,362,1
174,2,2,32,859,0
174,2,2,33,655,1
174,2,2,34,479,1
174,2,2,35,759,0
174,2,2,36,703,0
174,2,2,37,340,1
174,2,2,38,521,1
174,2,2,39,611,1
174,2,2,40,1025,0
154,2,1,1,683,1
154,2,1,2,585,1
154,2,1,3,571,1
154,2,1,4,589,1
154,2,1,5,559,1
154,2,1,6,443,1
154,2,1,7,580,1
154,2,1,8,502,1
154,2,1,9,532,1
154,2,1,10,569,1
154,2,1,11,499,1
154,2,1,12,497,1
154,2,1,13,615,1
154,2,1,14,553,1
154,2,1,15,388,1
154,2,1,16,383,1
154,2,1,17,545,1
154,2,1,18,421,1
154,2,1,19,358,1
154,2,1,20,426,1
154,2,1,21,540,1
154,2,1,22,407,1
154,2,1,23,577,1
154,2,1,24,580,1
154,2,1,25,470,1
154,2,1,26,550,1
154,2,1,27,625,1
154,2,1,28,977,0
154,2,1,29,635,1
154,2,1,30,531,1
154,2,1,31,736,1
154,2,1,32,483,1
154,2,1,33,610,1
154,2,1,34,1227,1
154,2,1,35,426,1
154,2,1,36,387,1
154,2,1,37,342,1
154,2,1,38,451,1
154,2,1,39,602,1
154,2,1,40,499,1
154,2,2,1,805,1
154,2,2,2,1038,1
154,2,2,3,533,1
154,2,2,4,769,1
154,2,2,5,516,1
154,2,2,6,1064,1
154,2,2,7,511,1
154,2,2,8,461,1
154,2,2,9,532,1
154,2,2,10,385,1
154,2,2,11,411,1
154,2,2,12,397,1
154,2,2,13,416,1
154,2,2,14,449,1
154,2,2,15,809,0
154,2,2,16,1257,1
154,2,2,17,495,1
154,2,2,18,614,1
154,2,2,19,519,1
154,2,2,20,652,1
154,2,2,21,707,1
154,2,2,22,521,1
154,2,2,23,365,1
154,2,2,24,641,1
154,2,2,25,512,1
154,2,2,26,510,1
154,2,2,27,675,1
154,2,2,28,626,1
154,2,2,29,674,1
154,2,2,30,1097,1
154,2,2,31,558,1
154,2,2,32,681,1
154,2,2,33,424,1
154,2,2,34,489,1
154,2,2,35,519,1
154,2,2,36,708,1
154,2,2,37,601,1
154,2,2,38,491,1
154,2,2,39,617,1
154,2,2,40,738,1
161,1,1,1,1027,1
161,1,1,2,783,1
161,1,1,3,862,1
161,1,1,4,1586,1
161,1,1,5,670,1
161,1,1,6,673,1
161,1,1,7,562,1
161,1,1,8,459,1
161,1,1,9,439,1
161,1,1,10,494,1
161,1,1,11,577,1
161,1,1,12,425,1
161,1,1,13,741,1
161,1,1,14,606,1
161,1,1,15,557,1
161,1,1,16,760,1
161,1,1,17,818,1
161,1,1,18,575,1
161,1,1,19,849,1
161,1,1,20,1184,1
161,1,1,21,906,1
161,1,1,22,545,1
161,1,1,23,665,1
161,1,1,24,374,1
161,1,1,25,1079,0
161,1,1,26,629,1
161,1,1,27,588,1
161,1,1,28,452,1
161,1,1,29,507,1
161,1,1,30,430,1
161,1,1,31,593,1
161,1,1,32,484,1
161,1,1,33,757,1
161,1,1,34,431,1
161,1,1,35,572,1
161,1,1,36,957,0
161,1,1,37,618,1
161,1,1,38,594,1
161,1,1,39,467,1
161,1,1,40,489,1
161,1,2,1,788,1
161,1,2,2,885,1
161,1,2,3,1192,1
161,1,2,4,1167,1
161,1,2,5,553,1
161,1,2,6,501,1
161,1,2,7,803,1
161,1,2,8,652,1
161,1,2,9,711,1
161,1,2,10,636,1
161,1,2,11,847,1
161,1,2,12,689,1
161,1,2,13,635,1
161,1,2,14,611,1
161,1,2,15,688,1
161,1,2,16,1063,0
161,1,2,17,850,1
161,1,2,18,1110,1
161,1,2,19,809,1
161,1,2,20,877,1
161,1,2,21,777,1
161,1,2,22,1003,0
161,1,2,23,921,1
161,1,2,24,733,1
161,1,2,25,711,1
161,1,2,26,866,1
161,1,2,27,743,1
161,1,2,28,904,1
161,1,2,29,740,1
161,1,2,30,859,1
161,1,2,31,819,1
161,1,2,32,646,1
161,1,2,33,757,1
161,1,2,34,782,1
161,1,2,35,1335,1
161,1,2,36,900,1
161,1,2,37,1367,1
161,1,2,38,782,1
161,1,2,39,934,1
161,1,2,40,1257,1
160,2,1,1,675,1
160,2,1,2,675,1
160,2,1,3,395,1
160,2,1,4,414,1
160,2,1,5,409,1
160,2,1,6,404,1
160,2,1,7,423,1
160,2,1,8,537,1
160,2,1,9,382,1
160,2,1,10,690,1
160,2,1,11,457,1
160,2,1,12,394,1
160,2,1,13,461,1
160,2,1,14,390,1
160,2,1,15,897,0
160,2,1,16,704,1
160,2,1,17,390,1
160,2,1,18,402,1
160,2,1,19,596,1
160,2,1,20,416,1
160,2,1,21,778,0
160,2,1,22,485,1
160,2,1,23,380,1
160,2,1,24,456,1
160,2,1,25,409,1
160,2,1,26,508,1
160,2,1,27,443,1
160,2,1,28,484,1
160,2,1,29,516,1
160,2,1,30,434,1
160,2,1,31,452,1
160,2,1,32,492,1
160,2,1,33,588,1
160,2,1,34,471,1
160,2,1,35,495,1
160,2,1,36,535,1
160,2,1,37,540,1
160,2,1,38,393,1
160,2,1,39,469,1
160,2,1,40,877,0
160,2,2,1,540,1
160,2,2,2,490,1
160,2,2,3,473,1
160,2,2,4,441,1
160,2,2,5,515,1
160,2,2,6,561,1
160,2,2,7,422,1
160,2,2,8,448,1
160,2,2,9,410,1
160,2,2,10,548,1
160,2,2,11,906,0
160,2,2,12,415,1
160,2,2,13,434,1
160,2,2,14,459,1
160,2,2,15,740,0
160,2,2,16,552,1
160,2,2,17,485,1
160,2,2,18,428,1
160,2,2,19,462,1
160,2,2,20,439,1
160,2,2,21,505,1
160,2,2,22,383,1
160,2,2,23,443,1
160,2,2,24,452,1
160,2,2,25,509,1
160,2,2,26,684,1
160,2,2,27,499,1
160,2,2,28,514,1
160,2,2,29,496,1
160,2,2,30,423,1
160,2,2,31,498,1
160,2,2,32,545,1
160,2,2,33,695,1
160,2,2,34,438,1
160,2,2,35,511,1
160,2,2,36,438,1
160,2,2,37,503,1
160,2,2,38,430,1
160,2,2,39,520,1
160,2,2,40,430,1
123,1,1,1,889,1
123,1,1,2,409,1
123,1,1,3,543,1
123,1,1,4,405,1
123,1,1,5,370,1
123,1,1,6,422,1
123,1,1,7,276,1
123,1,1,8,321,1
123,1,1,9,297,1
123,1,1,10,442,1
123,1,1,11,286,1
123,1,1,12,267,1
123,1,1,13,925,0
123,1,1,14,407,1
123,1,1,15,604,0
123,1,1,16,496,1
123,1,1,17,339,1
123,1,1,18,347,1
123,1,1,19,318,1
123,1,1,20,466,1
123,1,1,21,299,1
123,1,1,22,290,1
123,1,1,23,367,1
123,1,1,24,547,1
123,1,1,25,300,1
123,1,1,26,717,0
123,1,1,27,471,1
123,1,1,28,274,1
123,1,1,29,295,1
123,1,1,30,324,1
123,1,1,31,527,1
123,1,1,32,439,1
123,1,1,33,500,1
123,1,1,34,348,1
123,1,1,35,441,1
123,1,1,36,451,1
123,1,1,37,411,1
123,1,1,38,433,1
123,1,1,39,666,1
123,1,1,40,377,1
123,1,2,1,2378,1
123,1,2,2,603,1
123,1,2,3,892,1
123,1,2,4,562,1
123,1,2,5,543,1
123,1,2,6,946,1
123,1,2,7,611,1
123,1,2,8,574,1
123,1,2,9,912,1
123,1,2,10,592,1
123,1,2,11,566,1
123,1,2,12,614,1
123,1,2,13,475,1
123,1,2,14,514,1
123,1,2,15,334,1
123,1,2,16,926,1
123,1,2,17,775,1
123,1,2,18,463,1
123,1,2,19,636,1
123,1,2,20,397,1
123,1,2,21,746,0
123,1,2,22,445,1
123,1,2,23,520,1
123,1,2,24,1060,0
123,1,2,25,873,1
123,1,2,26,550,1
123,1,2,27,495,1
123,1,2,28,579,1
123,1,2,29,584,1
123,1,2,30,519,1
123,1,2,31,675,1
123,1,2,32,875,1
123,1,2,33,332,1
123,1,2,34,754,1
123,1,2,35,644,1
123,1,2,36,670,1
123,1,2,37,675,1
123,1,2,38,707,1
123,1,2,39,696,1
123,1,2,40,523,1
167,1,1,1,1340,1
167,1,1,2,611,1
167,1,1,3,451,1
167,1,1,4,366,1
167,1,1,5,372,1
167,1,1,6,353,1
167,1,1,7,422,1
167,1,1,8,385,1
167,1,1,9,412,1
167,1,1,10,535,1
167,1,1,11,656,1
167,1,1,12,600,1
167,1,1,13,497,1
167,1,1,14,690,1
167,1,1,15,453,1
167,1,1,16,457,1
167,1,1,17,431,1
167,1,1,18,856,0
167,1,1,19,453,1
167,1,1,20,474,1
167,1,1,21,451,1
167,1,1,22,422,1
167,1,1,23,441,1
167,1,1,24,895,0
167,1,1,25,453,1
167,1,1,26,799,1
167,1,1,27,558,1
167,1,1,28,443,1
167,1,1,29,534,1
167,1,1,30,490,1
167,1,1,31,480,1
167,1,1,32,527,1
167,1,1,33,492,1
167,1,1,34,503,1
167,1,1,35,432,1
167,1,1,36,863,0
167,1,1,37,497,1
167,1,1,38,523,1
167,1,1,39,516,1
167,1,1,40,531,1
167,1,2,1,951,1
167,1,2,2,571,1
167,1,2,3,1012,1
167,1,2,4,563,1
167,1,2,5,586,1
167,1,2,6,1189,1
167,1,2,7,518,1
167,1,2,8,563,1
167,1,2,9,760,1
167,1,2,10,665,1
167,1,2,11,460,1
167,1,2,12,824,0
167,1,2,13,550,1
167,1,2,14,669,1
167,1,2,15,542,1
167,1,2,16,504,1
167,1,2,17,473,1
167,1,2,18,610,1
167,1,2,19,388,1
167,1,2,20,625,1
167,1,2,21,566,1
167,1,2,22,797,0
167,1,2,23,538,1
167,1,2,24,746,0
167,1,2,25,624,1
167,1,2,26,1106,1
167,1,2,27,571,1
167,1,2,28,495,1
167,1,2,29,566,1
167,1,2,30,579,1
167,1,2,31,498,1
167,1,2,32,683,0
167,1,2,33,616,1
167,1,2,34,701,1
167,1,2,35,664,1
167,1,2,36,672,1
167,1,2,37,563,1
167,1,2,38,583,1
167,1,2,39,701,1
167,1,2,40,684,1
162,2,1,1,1152,1
162,2,1,2,1307,1
162,2,1,3,974,1
162,2,1,4,713,1
162,2,1,5,812,1
162,2,1,6,996,1
162,2,1,7,748,1
162,2,1,8,855,1
162,2,1,9,939,1
162,2,1,10,897,1
162,2,1,11,947,1
162,2,1,12,821,1
162,2,1,13,697,1
162,2,1,14,686,1
162,2,1,15,662,1
162,2,1,16,609,1
162,2,1,17,580,1
162,2,1,18,651,1
162,2,1,19,792,1
162,2,1,20,887,1
162,2,1,21,899,1
162,2,1,22,739,1
162,2,1,23,699,1
162,2,1,24,873,1
162,2,1,25,650,1
162,2,1,26,748,1
162,2,1,27,653,1
162,2,1,28,717,1
162,2,1,29,643,1
162,2,1,30,762,1
162,2,1,31,609,1
162,2,1,32,614,1
162,2,1,33,593,1
162,2,1,34,674,1
162,2,1,35,730,1
162,2,1,36,770,1
162,2,1,37,528,1
162,2,1,38,482,1
162,2,1,39,586,1
162,2,1,40,793,1
162,2,2,1,920,1
162,2,2,2,970,1
162,2,2,3,697,1
162,2,2,4,939,1
162,2,2,5,619,1
162,2,2,6,759,1
162,2,2,7,1065,1
162,2,2,8,717,1
162,2,2,9,706,1
162,2,2,10,682,1
162,2,2,11,440,1
162,2,2,12,645,1
162,2,2,13,507,1
162,2,2,14,536,1
162,2,2,15,641,1
162,2,2,16,723,1
162,2,2,17,720,1
162,2,2,18,811,1
162,2,2,19,654,1
162,2,2,20,680,1
162,2,2,21,543,1
162,2,2,22,1291,0
162,2,2,23,1393,1
162,2,2,24,817,1
162,2,2,25,580,1
162,2,2,26,723,1
162,2,2,27,734,1
162,2,2,28,757,1
162,2,2,29,688,1
162,2,2,30,715,1
162,2,2,31,771,1
162,2,2,32,791,1
162,2,2,33,625,1
162,2,2,34,634,1
162,2,2,35,816,1
162,2,2,36,672,1
162,2,2,37,535,1
162,2,2,38,737,1
162,2,2,39,663,1
162,2,2,40,635,1
147,1,1,1,634,1
147,1,1,2,409,1
147,1,1,3,642,1
147,1,1,4,1372,0
147,1,1,5,609,1
147,1,1,6,484,1
147,1,1,7,544,1
147,1,1,8,527,1
147,1,1,9,953,0
147,1,1,10,502,1
147,1,1,11,594,1
147,1,1,12,419,1
147,1,1,13,823,0
147,1,1,14,401,1
147,1,1,15,486,1
147,1,1,16,604,1
147,1,1,17,430,1
147,1,1,18,474,1
147,1,1,19,518,1
147,1,1,20,599,1
147,1,1,21,481,1
147,1,1,22,515,1
147,1,1,23,480,1
147,1,1,24,584,1
147,1,1,25,608,1
147,1,1,26,575,1
147,1,1,27,508,1
147,1,1,28,481,1
147,1,1,29,494,1
147,1,1,30,473,1
147,1,1,31,496,1
147,1,1,32,414,1
147,1,1,33,441,1
147,1,1,34,406,1
147,1,1,35,594,1
147,1,1,36,407,1
147,1,1,37,501,1
147,1,1,38,485,1
147,1,1,39,519,1
147,1,1,40,492,1
147,1,2,1,757,1
147,1,2,2,798,1
147,1,2,3,554,1
147,1,2,4,876,1
147,1,2,5,700,1
147,1,2,6,642,1
147,1,2,7,482,1
147,1,2,8,1117,0
147,1,2,9,557,1
147,1,2,10,492,1
147,1,2,11,621,1
147,1,2,12,556,1
147,1,2,13,582,1
147,1,2,14,579,1
147,1,2,15,512,1
147,1,2,16,589,1
147,1,2,17,501,1
147,1,2,18,820,1
147,1,2,19,437,1
147,1,2,20,605,1
147,1,2,21,616,1
147,1,2,22,725,1
147,1,2,23,565,1
147,1,2,24,593,1
147,1,2,25,530,1
147,1,2,26,870,1
147,1,2,27,458,1
147,1,2,28,655,1
147,1,2,29,673,1
147,1,2,30,596,1
147,1,2,31,615,1
147,1,2,32,630,1
147,1,2,33,461,1
147,1,2,34,459,1
147,1,2,35,513,1
147,1,2,36,497,1
147,1,2,37,532,1
147,1,2,38,458,1
147,1,2,39,508,1
147,1,2,40,714,1
124,2,1,1,1426,1
124,2,1,2,1075,1
124,2,1,3,743,1
124,2,1,4,733,1
124,2,1,5,877,1
124,2,1,6,702,1
124,2,1,7,695,1
124,2,1,8,745,1
124,2,1,9,706,1
124,2,1,10,672,1
124,2,1,11,645,1
124,2,1,12,696,1
124,2,1,13,693,1
124,2,1,14,689,1
124,2,1,15,657,1
124,2,1,16,682,1
124,2,1,17,624,1
124,2,1,18,697,1
124,2,1,19,626,1
124,2,1,20,565,1
124,2,1,21,622,1
124,2,1,22,604,1
124,2,1,23,624,1
124,2,1,24,787,1
124,2,1,25,707,1
124,2,1,26,553,1
124,2,1,27,497,1
124,2,1,28,616,1
124,2,1,29,618,1
124,2,1,30,649,1
124,2,1,31,591,1
124,2,1,32,561,1
124,2,1,33,599,1
124,2,1,34,730,1
124,2,1,35,622,1
124,2,1,36,583,1
124,2,1,37,560,1
124,2,1,38,685,1
124,2,1,39,580,1
124,2,1,40,618,1
124,2,2,1,1242,1
124,2,2,2,741,1
124,2,2,3,651,1
124,2,2,4,883,1
124,2,2,5,535,1
124,2,2,6,564,1
124,2,2,7,566,1
124,2,2,8,625,1
124,2,2,9,717,1
124,2,2,10,581,1
124,2,2,11,737,1
124,2,2,12,739,1
124,2,2,13,495,1
124,2,2,14,551,1
124,2,2,15,493,1
124,2,2,16,630,1
124,2,2,17,616,1
124,2,2,18,652,1
124,2,2,19,606,1
124,2,2,20,4140,0
124,2,2,21,874,1
124,2,2,22,955,1
124,2,2,23,625,1
124,2,2,24,503,1
124,2,2,25,565,1
124,2,2,26,545,1
124,2,2,27,594,1
124,2,2,28,644,1
124,2,2,29,549,1
124,2,2,30,571,1
124,2,2,31,590,1
124,2,2,32,655,1
124,2,2,33,569,1
124,2,2,34,659,1
124,2,2,35,550,1
124,2,2,36,464,1
124,2,2,37,676,1
124,2,2,38,631,1
124,2,2,39,750,1
124,2,2,40,613,1
126,2,1,1,923,1
126,2,1,2,601,1
126,2,1,3,576,1
126,2,1,4,1084,0
126,2,1,5,630,1
126,2,1,6,710,1
126,2,1,7,759,1
126,2,1,8,967,1
126,2,1,9,487,1
126,2,1,10,770,1
126,2,1,11,726,1
126,2,1,12,848,1
126,2,1,13,849,1
126,2,1,14,1261,1
126,2,1,15,527,1
126,2,1,16,792,1
126,2,1,17,432,1
126,2,1,18,433,1
126,2,1,19,602,1
126,2,1,20,524,1
126,2,1,21,560,1
126,2,1,22,493,1
126,2,1,23,573,1
126,2,1,24,462,1
126,2,1,25,622,1
126,2,1,26,488,1
126,2,1,27,622,1
126,2,1,28,856,0
126,2,1,29,748,1
126,2,1,30,829,1
126,2,1,31,974,1
126,2,1,32,703,1
126,2,1,33,603,1
126,2,1,34,704,1
126,2,1,35,668,1
126,2,1,36,607,1
126,2,1,37,606,1
126,2,1,38,649,1
126,2,1,39,765,1
126,2,1,40,737,1
126,2,2,1,808,1
126,2,2,2,475,1
126,2,2,3,759,1
126,2,2,4,683,1
126,2,2,5,595,1
126,2,2,6,482,1
126,2,2,7,590,1
126,2,2,8,921,1
126,2,2,9,603,1
126,2,2,10,906,1
126,2,2,11,932,1
126,2,2,12,827,1
126,2,2,13,689,1
126,2,2,14,670,1
126,2,2,15,668,1
126,2,2,16,516,1
126,2,2,17,552,1
126,2,2,18,695,1
126,2,2,19,703,1
126,2,2,20,676,1
126,2,2,21,934,1
126,2,2,22,1141,0
126,2,2,23,617,1
126,2,2,24,824,1
126,2,2,25,538,1
126,2,2,26,910,1
126,2,2,27,733,1
126,2,2,28,491,1
126,2,2,29,597,1
126,2,2,30,688,1
126,2,2,31,616,1
126,2,2,32,654,1
126,2,2,33,630,1
126,2,2,34,464,1
126,2,2,35,773,1
126,2,2,36,853,1
126,2,2,37,985,1
126,2,2,38,580,1
126,2,2,39,677,1
126,2,2,40,1044,1
122,2,1,1,921,1
122,2,1,2,747,1
122,2,1,3,603,1
122,2,1,4,488,1
122,2,1,5,746,1
122,2,1,6,554,1
122,2,1,7,1226,1
122,2,1,8,920,1
122,2,1,9,705,1
122,2,1,10,611,1
122,2,1,11,945,1
122,2,1,12,1258,1
122,2,1,13,695,1
122,2,1,14,737,1
122,2,1,15,842,1
122,2,1,16,871,1
122,2,1,17,578,1
122,2,1,18,2249,1
122,2,1,19,680,1
122,2,1,20,731,1
122,2,1,21,771,1
122,2,1,22,659,1
122,2,1,23,726,1
122,2,1,24,496,1
122,2,1,25,657,1
122,2,1,26,485,1
122,2,1,27,879,1
122,2,1,28,834,1
122,2,1,29,839,1
122,2,1,30,611,1
122,2,1,31,657,1
122,2,1,32,509,1
122,2,1,33,950,1
122,2,1,34,550,1
122,2,1,35,550,1
122,2,1,36,1709,0
122,2,1,37,672,1
122,2,1,38,723,1
122,2,1,39,668,1
122,2,1,40,527,1
122,2,2,1,1003,1
122,2,2,2,842,1
122,2,2,3,567,1
122,2,2,4,606,1
122,2,2,5,627,1
122,2,2,6,632,1
122,2,2,7,652,1
122,2,2,8,496,1
122,2,2,9,578,1
122,2,2,10,1777,0
122,2,2,11,689,1
122,2,2,12,1261,0
122,2,2,13,911,1
122,2,2,14,1050,0
122,2,2,15,781,1
122,2,2,16,1029,1
122,2,2,17,905,1
122,2,2,18,651,1
122,2,2,19,503,1
122,2,2,20,544,1
122,2,2,21,608,1
122,2,2,22,566,1
122,2,2,23,493,1
122,2,2,24,622,1
122,2,2,25,563,1
122,2,2,26,2130,0
122,2,2,27,989,1
122,2,2,28,940,1
122,2,2,29,773,1
122,2,2,30,1460,0
122,2,2,31,1281,0
122,2,2,32,1091,1
122,2,2,33,735,1
122,2,2,34,1175,0
122,2,2,35,758,1
122,2,2,36,1214,1
122,2,2,37,1156,1
122,2,2,38,1741,1
122,2,2,39,616,1
122,2,2,40,693,1
136,2,1,1,1045,1
136,2,1,2,1090,1
136,2,1,3,917,1
136,2,1,4,671,1
136,2,1,5,1434,1
136,2,1,6,768,1
136,2,1,7,743,1
136,2,1,8,1295,1
136,2,1,9,722,1
136,2,1,10,716,1
136,2,1,11,517,1
136,2,1,12,813,1
136,2,1,13,931,1
136,2,1,14,820,1
136,2,1,15,1865,1
136,2,1,16,695,1
136,2,1,17,1457,1
136,2,1,18,1039,1
136,2,1,19,837,1
136,2,1,20,976,1
136,2,1,21,928,1
136,2,1,22,745,1
136,2,1,23,609,1
136,2,1,24,742,1
136,2,1,25,607,1
136,2,1,26,732,1
136,2,1,27,773,1
136,2,1,28,892,1
136,2,1,29,775,1
136,2,1,30,870,1
136,2,1,31,737,1
136,2,1,32,802,1
136,2,1,33,816,1
136,2,1,34,853,1
136,2,1,35,897,1
136,2,1,36,771,1
136,2,1,37,779,1
136,2,1,38,769,1
136,2,1,39,584,1
136,2,1,40,1223,1
136,2,2,1,725,1
136,2,2,2,510,1
136,2,2,3,495,1
136,2,2,4,737,1
136,2,2,5,474,1
136,2,2,6,524,1
136,2,2,7,861,1
136,2,2,8,441,1
136,2,2,9,484,1
136,2,2,10,646,1
136,2,2,11,650,1
136,2,2,12,814,1
136,2,2,13,531,1
136,2,2,14,651,1
136,2,2,15,951,1
136,2,2,16,624,1
136,2,2,17,804,1
136,2,2,18,730,1
136,2,2,19,738,1
136,2,2,20,627,1
136,2,2,21,1112,1
136,2,2,22,721,1
136,2,2,23,747,1
136,2,2,24,522,1
136,2,2,25,595,1
136,2,2,26,1049,1
136,2,2,27,597,1
136,2,2,28,643,1
136,2,2,29,600,1
136,2,2,30,1124,1
136,2,2,31,662,1
136,2,2,32,721,1
136,2,2,33,626,1
136,2,2,34,639,1
136,2,2,35,603,1
136,2,2,36,505,1
136,2,2,37,570,1
136,2,2,38,569,1
136,2,2,39,384,1
136,2,2,40,597,1
163,1,1,1,573,1
163,1,1,2,417,1
163,1,1,3,407,1
163,1,1,4,348,1
163,1,1,5,335,1
163,1,1,6,295,1
163,1,1,7,312,1
163,1,1,8,277,1
163,1,1,9,351,1
163,1,1,10,378,1
163,1,1,11,351,1
163,1,1,12,372,1
163,1,1,13,356,1
163,1,1,14,382,1
163,1,1,15,289,1
163,1,1,16,340,1
163,1,1,17,382,1
163,1,1,18,388,1
163,1,1,19,348,1
163,1,1,20,418,1
163,1,1,21,384,1
163,1,1,22,312,1
163,1,1,23,514,0
163,1,1,24,487,1
163,1,1,25,352,1
163,1,1,26,294,1
163,1,1,27,391,1
163,1,1,28,379,1
163,1,1,29,304,1
163,1,1,30,385,1
163,1,1,31,485,1
163,1,1,32,351,1
163,1,1,33,432,1
163,1,1,34,955,0
163,1,1,35,412,0
163,1,1,36,429,1
163,1,1,37,329,1
163,1,1,38,638,1
163,1,1,39,291,1
163,1,1,40,427,1
163,1,2,1,820,1
163,1,2,2,419,1
163,1,2,3,970,0
163,1,2,4,419,1
163,1,2,5,515,1
163,1,2,6,443,1
163,1,2,7,368,1
163,1,2,8,400,1
163,1,2,9,851,0
163,1,2,10,531,1
163,1,2,11,557,1
163,1,2,12,459,1
163,1,2,13,395,1
163,1,2,14,615,1
163,1,2,15,669,0
163,1,2,16,410,1
163,1,2,17,377,1
163,1,2,18,441,1
163,1,2,19,575,1
163,1,2,20,432,1
163,1,2,21,353,1
163,1,2,22,469,1
163,1,2,23,867,0
163,1,2,24,384,1
163,1,2,25,351,1
163,1,2,26,580,1
163,1,2,27,377,1
163,1,2,28,419,1
163,1,2,29,416,1
163,1,2,30,383,1
163,1,2,31,501,1
163,1,2,32,478,1
163,1,2,33,728,0
163,1,2,34,561,1
163,1,2,35,398,1
163,1,2,36,373,1
163,1,2,37,685,0
163,1,2,38,427,1
163,1,2,39,568,1
163,1,2,40,622,1
149,1,1,1,437,1
149,1,1,2,386,1
149,1,1,3,392,1
149,1,1,4,415,1
149,1,1,5,391,1
149,1,1,6,462,1
149,1,1,7,477,1
149,1,1,8,416,1
149,1,1,9,665,0
149,1,1,10,400,1
149,1,1,11,425,1
149,1,1,12,420,1
149,1,1,13,399,1
149,1,1,14,376,1
149,1,1,15,396,1
149,1,1,16,376,1
149,1,1,17,366,1
149,1,1,18,383,1
149,1,1,19,313,1
149,1,1,20,379,1
149,1,1,21,375,1
149,1,1,22,371,1
149,1,1,23,359,1
149,1,1,24,725,0
149,1,1,25,506,1
149,1,1,26,455,1
149,1,1,27,397,1
149,1,1,28,400,1
149,1,1,29,415,1
149,1,1,30,406,1
149,1,1,31,333,1
149,1,1,32,680,0
149,1,1,33,493,1
149,1,1,34,405,1
149,1,1,35,391,1
149,1,1,36,442,1
149,1,1,37,484,1
149,1,1,38,463,1
149,1,1,39,684,1
149,1,1,40,596,1
149,1,2,1,564,1
149,1,2,2,544,1
149,1,2,3,511,1
149,1,2,4,811,1
149,1,2,5,571,1
149,1,2,6,703,0
149,1,2,7,524,1
149,1,2,8,501,1
149,1,2,9,488,1
149,1,2,10,481,1
149,1,2,11,407,1
149,1,2,12,439,1
149,1,2,13,446,1
149,1,2,14,419,1
149,1,2,15,432,1
149,1,2,16,543,1
149,1,2,17,489,1
149,1,2,18,486,1
149,1,2,19,740,1
149,1,2,20,378,1
149,1,2,21,394,1
149,1,2,22,684,1
149,1,2,23,378,1
149,1,2,24,644,1
149,1,2,25,542,1
149,1,2,26,452,1
149,1,2,27,430,1
149,1,2,28,580,1
149,1,2,29,479,1
149,1,2,30,630,1
149,1,2,31,458,1
149,1,2,32,840,0
149,1,2,33,432,1
149,1,2,34,480,1
149,1,2,35,540,1
149,1,2,36,535,1
149,1,2,37,829,1
149,1,2,38,687,1
149,1,2,39,431,1
149,1,2,40,932,0
128,2,1,1,557,1
128,2,1,2,1024,1
128,2,1,3,1616,1
128,2,1,4,1134,1
128,2,1,5,609,1
128,2,1,6,554,1
128,2,1,7,657,1
128,2,1,8,577,1
128,2,1,9,666,1
128,2,1,10,411,1
128,2,1,11,1896,0
128,2,1,12,543,1
128,2,1,13,467,1
128,2,1,14,960,1
128,2,1,15,541,1
128,2,1,16,812,1
128,2,1,17,405,1
128,2,1,18,786,1
128,2,1,19,566,1
128,2,1,20,412,1
128,2,1,21,630,1
128,2,1,22,616,1
128,2,1,23,613,1
128,2,1,24,2411,0
128,2,1,25,555,1
128,2,1,26,529,1
128,2,1,27,419,1
128,2,1,28,622,1
128,2,1,29,529,1
128,2,1,30,547,1
128,2,1,31,601,1
128,2,1,32,496,1
128,2,1,33,558,1
128,2,1,34,741,1
128,2,1,35,417,1
128,2,1,36,388,1
128,2,1,37,512,1
128,2,1,38,683,1
128,2,1,39,440,1
128,2,1,40,402,1
128,2,2,1,807,1
128,2,2,2,606,1
128,2,2,3,518,1
128,2,2,4,1085,1
128,2,2,5,541,1
128,2,2,6,1567,0
128,2,2,7,488,1
128,2,2,8,560,1
128,2,2,9,558,1
128,2,2,10,456,1
128,2,2,11,412,1
128,2,2,12,744,1
128,2,2,13,485,1
128,2,2,14,1282,1
128,2,2,15,629,1
128,2,2,16,590,1
128,2,2,17,378,1
128,2,2,18,597,1
128,2,2,19,462,1
128,2,2,20,632,1
128,2,2,21,392,1
128,2,2,22,583,1
128,2,2,23,524,1
128,2,2,24,627,1
128,2,2,25,459,1
128,2,2,26,458,1
128,2,2,27,522,1
128,2,2,28,646,1
128,2,2,29,601,1
128,2,2,30,509,1
128,2,2,31,440,1
128,2,2,32,511,1
128,2,2,33,633,1
128,2,2,34,840,1
128,2,2,35,652,1
128,2,2,36,522,1
128,2,2,37,604,1
128,2,2,38,640,1
128,2,2,39,2699,0
128,2,2,40,613,1
120,2,1,1,1215,1
120,2,1,2,627,1
120,2,1,3,601,1
120,2,1,4,624,1
120,2,1,5,698,1
120,2,1,6,526,1
120,2,1,7,568,1
120,2,1,8,546,1
120,2,1,9,493,1
120,2,1,10,531,1
120,2,1,11,448,1
120,2,1,12,496,1
120,2,1,13,484,1
120,2,1,14,506,1
120,2,1,15,499,1
120,2,1,16,486,0
120,2,1,17,588,1
120,2,1,18,442,1
120,2,1,19,400,1
120,2,1,20,483,1
120,2,1,21,838,0
120,2,1,22,654,1
120,2,1,23,689,1
120,2,1,24,614,1
120,2,1,25,633,1
120,2,1,26,592,1
120,2,1,27,548,1
120,2,1,28,589,1
120,2,1,29,487,1
120,2,1,30,495,1
120,2,1,31,501,1
120,2,1,32,536,1
120,2,1,33,487,1
120,2,1,34,597,1
120,2,1,35,619,1
120,2,1,36,632,1
120,2,1,37,596,1
120,2,1,38,496,1
120,2,1,39,453,1
120,2,1,40,441,1
120,2,2,1,727,1
120,2,2,2,1150,1
120,2,2,3,593,1
120,2,2,4,816,1
120,2,2,5,552,1
120,2,2,6,925,1
120,2,2,7,614,1
120,2,2,8,467,1
120,2,2,9,534,1
120,2,2,10,766,1
120,2,2,11,790,1
120,2,2,12,616,1
120,2,2,13,561,1
120,2,2,14,481,1
120,2,2,15,423,1
120,2,2,16,489,1
120,2,2,17,619,1
120,2,2,18,453,1
120,2,2,19,882,1
120,2,2,20,861,1
120,2,2,21,745,1
120,2,2,22,663,1
120,2,2,23,537,1
120,2,2,24,479,1
120,2,2,25,665,1
120,2,2,26,737,1
120,2,2,27,526,1
120,2,2,28,546,1
120,2,2,29,620,1
120,2,2,30,581,1
120,2,2,31,550,1
120,2,2,32,666,1
120,2,2,33,817,1
120,2,2,34,712,1
120,2,2,35,628,1
120,2,2,36,1028,1
120,2,2,37,517,1
120,2,2,38,1057,1
120,2,2,39,514,1
120,2,2,40,568,1
102,2,1,1,2007,1
102,2,1,2,976,1
102,2,1,3,616,1
102,2,1,4,704,1
102,2,1,5,627,1
102,2,1,6,502,1
102,2,1,7,545,1
102,2,1,8,508,1
102,2,1,9,487,1
102,2,1,10,520,1
102,2,1,11,509,1
102,2,1,12,440,1
102,2,1,13,518,1
102,2,1,14,403,1
102,2,1,15,665,1
102,2,1,16,596,1
102,2,1,17,594,1
102,2,1,18,519,1
102,2,1,19,893,1
102,2,1,20,606,1
102,2,1,21,654,1
102,2,1,22,614,1
102,2,1,23,479,1
102,2,1,24,844,1
102,2,1,25,674,1
102,2,1,26,528,1
102,2,1,27,728,1
102,2,1,28,576,1
102,2,1,29,761,1
102,2,1,30,470,1
102,2,1,31,545,1
102,2,1,32,540,1
102,2,1,33,423,1
102,2,1,34,411,1
102,2,1,35,434,1
102,2,1,36,568,1
102,2,1,37,496,1
102,2,1,38,481,1
102,2,1,39,1414,1
102,2,1,40,511,1
102,2,2,1,1004,1
102,2,2,2,577,1
102,2,2,3,890,1
102,2,2,4,834,1
102,2,2,5,720,1
102,2,2,6,974,1
102,2,2,7,862,1
102,2,2,8,609,1
102,2,2,9,626,1
102,2,2,10,717,1
102,2,2,11,546,1
102,2,2,12,773,1
102,2,2,13,582,1
102,2,2,14,737,1
102,2,2,15,641,1
102,2,2,16,647,1
102,2,2,17,559,1
102,2,2,18,613,1
102,2,2,19,557,1
102,2,2,20,555,1
102,2,2,21,601,1
102,2,2,22,622,1
102,2,2,23,425,1
102,2,2,24,756,1
102,2,2,25,594,1
102,2,2,26,568,1
102,2,2,27,688,1
102,2,2,28,736,1
102,2,2,29,585,1
102,2,2,30,1164,0
102,2,2,31,684,1
102,2,2,32,610,1
102,2,2,33,594,1
102,2,2,34,592,1
102,2,2,35,701,1
102,2,2,36,673,1
102,2,2,37,838,1
102,2,2,38,692,1
102,2,2,39,700,1
102,2,2,40,687,1
110,2,1,1,1094,1
110,2,1,2,853,1
110,2,1,3,723,1
110,2,1,4,662,1
110,2,1,5,588,1
110,2,1,6,751,1
110,2,1,7,669,1
110,2,1,8,749,1
110,2,1,9,470,1
110,2,1,10,562,1
110,2,1,11,528,1
110,2,1,12,610,1
110,2,1,13,543,1
110,2,1,14,554,1
110,2,1,15,549,1
110,2,1,16,556,1
110,2,1,17,839,0
110,2,1,18,751,1
110,2,1,19,579,1
110,2,1,20,659,1
110,2,1,21,830,1
110,2,1,22,649,1
110,2,1,23,773,1
110,2,1,24,558,1
110,2,1,25,512,1
110,2,1,26,652,1
110,2,1,27,600,1
110,2,1,28,486,1
110,2,1,29,491,1
110,2,1,30,581,1
110,2,1,31,551,1
110,2,1,32,533,1
110,2,1,33,489,1
110,2,1,34,615,1
110,2,1,35,477,1
110,2,1,36,470,1
110,2,1,37,431,1
110,2,1,38,498,1
110,2,1,39,566,1
110,2,1,40,697,1
110,2,2,1,893,1
110,2,2,2,984,1
110,2,2,3,819,1
110,2,2,4,508,1
110,2,2,5,533,1
110,2,2,6,569,1
110,2,2,7,727,1
110,2,2,8,528,1
110,2,2,9,665,1
110,2,2,10,541,1
110,2,2,11,747,1
110,2,2,12,504,1
110,2,2,13,656,1
110,2,2,14,705,1
110,2,2,15,684,1
110,2,2,16,876,1
110,2,2,17,716,1
110,2,2,18,1033,1
110,2,2,19,632,1
110,2,2,20,697,1
110,2,2,21,576,1
110,2,2,22,602,1
110,2,2,23,786,1
110,2,2,24,1122,1
110,2,2,25,609,1
110,2,2,26,611,1
110,2,2,27,531,1
110,2,2,28,680,1
110,2,2,29,575,1
110,2,2,30,871,1
110,2,2,31,555,1
110,2,2,32,1024,0
110,2,2,33,1027,1
110,2,2,34,1182,1
110,2,2,35,727,1
110,2,2,36,938,1
110,2,2,37,572,1
110,2,2,38,481,1
110,2,2,39,697,1
110,2,2,40,593,1
127,1,1,1,1296,1
127,1,1,2,374,1
127,1,1,3,434,1
127,1,1,4,475,1
127,1,1,5,363,1
127,1,1,6,336,1
127,1,1,7,338,1
127,1,1,8,450,1
127,1,1,9,435,1
127,1,1,10,404,1
127,1,1,11,703,0
127,1,1,12,500,1
127,1,1,13,467,1
127,1,1,14,635,1
127,1,1,15,476,1
127,1,1,16,428,1
127,1,1,17,446,1
127,1,1,18,560,1
127,1,1,19,427,1
127,1,1,20,494,1
127,1,1,21,893,0
127,1,1,22,531,1
127,1,1,23,441,1
127,1,1,24,651,1
127,1,1,25,387,1
127,1,1,26,518,1
127,1,1,27,364,1
127,1,1,28,400,1
127,1,1,29,403,1
127,1,1,30,454,1
127,1,1,31,550,1
127,1,1,32,611,0
127,1,1,33,565,1
127,1,1,34,553,1
127,1,1,35,461,1
127,1,1,36,557,1
127,1,1,37,633,1
127,1,1,38,395,1
127,1,1,39,430,1
127,1,1,40,424,1
127,1,2,1,453,1
127,1,2,2,598,1
127,1,2,3,689,1
127,1,2,4,736,1
127,1,2,5,469,1
127,1,2,6,533,1
127,1,2,7,410,1
127,1,2,8,518,1
127,1,2,9,540,1
127,1,2,10,817,0
127,1,2,11,514,1
127,1,2,12,536,1
127,1,2,13,445,1
127,1,2,14,422,1
127,1,2,15,504,1
127,1,2,16,719,1
127,1,2,17,637,1
127,1,2,18,526,1
127,1,2,19,491,1
127,1,2,20,811,0
127,1,2,21,452,1
127,1,2,22,541,0
127,1,2,23,513,1
127,1,2,24,464,1
127,1,2,25,433,1
127,1,2,26,554,1
127,1,2,27,678,1
127,1,2,28,566,1
127,1,2,29,473,1
127,1,2,30,426,1
127,1,2,31,532,1
127,1,2,32,609,1
127,1,2,33,520,1
127,1,2,34,675,0
127,1,2,35,528,1
127,1,2,36,702,0
127,1,2,37,581,1
127,1,2,38,720,0
127,1,2,39,700,1
127,1,2,40,507,1
58,2,1,1,2453,1
58,2,1,2,762,1
58,2,1,3,717,1
58,2,1,4,746,1
58,2,1,5,630,1
58,2,1,6,600,1
58,2,1,7,609,1
58,2,1,8,459,1
58,2,1,9,603,1
58,2,1,10,893,1
58,2,1,11,684,1
58,2,1,12,561,1
58,2,1,13,493,1
58,2,1,14,588,1
58,2,1,15,654,1
58,2,1,16,670,1
58,2,1,17,493,1
58,2,1,18,611,1
58,2,1,19,701,1
58,2,1,20,563,1
58,2,1,21,927,0
58,2,1,22,755,1
58,2,1,23,454,1
58,2,1,24,542,1
58,2,1,25,555,1
58,2,1,26,719,1
58,2,1,27,564,1
58,2,1,28,488,1
58,2,1,29,494,1
58,2,1,30,485,1
58,2,1,31,571,1
58,2,1,32,535,1
58,2,1,33,595,1
58,2,1,34,599,1
58,2,1,35,441,1
58,2,1,36,441,1
58,2,1,37,490,1
58,2,1,38,416,1
58,2,1,39,362,1
58,2,1,40,518,1
58,2,2,1,1652,1
58,2,2,2,1306,1
58,2,2,3,927,1
58,2,2,4,804,1
58,2,2,5,661,1
58,2,2,6,621,1
58,2,2,7,583,1
58,2,2,8,560,1
58,2,2,9,556,1
58,2,2,10,448,1
58,2,2,11,600,1
58,2,2,12,875,1
58,2,2,13,841,1
58,2,2,14,905,1
58,2,2,15,358,1
58,2,2,16,570,1
58,2,2,17,485,1
58,2,2,18,444,1
58,2,2,19,373,1
58,2,2,20,488,1
58,2,2,21,631,1
58,2,2,22,656,1
58,2,2,23,376,1
58,2,2,24,883,1
58,2,2,25,633,1
58,2,2,26,754,1
58,2,2,27,574,1
58,2,2,28,632,1
58,2,2,29,513,1
58,2,2,30,575,1
58,2,2,31,578,1
58,2,2,32,1021,0
58,2,2,33,2621,0
58,2,2,34,1115,1
58,2,2,35,799,1
58,2,2,36,881,1
58,2,2,37,688,1
58,2,2,38,830,1
58,2,2,39,616,1
58,2,2,40,873,1
118,2,1,1,912,1
118,2,1,2,886,1
118,2,1,3,508,1
118,2,1,4,334,1
118,2,1,5,525,1
118,2,1,6,475,1
118,2,1,7,545,1
118,2,1,8,494,1
118,2,1,9,832,1
118,2,1,10,502,1
118,2,1,11,559,1
118,2,1,12,622,1
118,2,1,13,564,1
118,2,1,14,617,1
118,2,1,15,515,1
118,2,1,16,473,1
118,2,1,17,449,1
118,2,1,18,442,1
118,2,1,19,997,0
118,2,1,20,677,1
118,2,1,21,540,1
118,2,1,22,566,1
118,2,1,23,525,1
118,2,1,24,591,1
118,2,1,25,495,1
118,2,1,26,489,1
118,2,1,27,598,1
118,2,1,28,475,1
118,2,1,29,612,1
118,2,1,30,449,1
118,2,1,31,480,1
118,2,1,32,405,1
118,2,1,33,654,1
118,2,1,34,861,1
118,2,1,35,559,1
118,2,1,36,494,1
118,2,1,37,573,1
118,2,1,38,409,1
118,2,1,39,477,1
118,2,1,40,352,1
118,2,2,1,766,1
118,2,2,2,389,1
118,2,2,3,473,1
118,2,2,4,399,1
118,2,2,5,597,1
118,2,2,6,452,1
118,2,2,7,780,0
118,2,2,8,577,1
118,2,2,9,380,1
118,2,2,10,680,1
118,2,2,11,519,1
118,2,2,12,535,1
118,2,2,13,435,1
118,2,2,14,501,1
118,2,2,15,553,1
118,2,2,16,645,1
118,2,2,17,622,1
118,2,2,18,610,1
118,2,2,19,530,1
118,2,2,20,470,1
118,2,2,21,565,1
118,2,2,22,448,1
118,2,2,23,482,1
118,2,2,24,992,0
118,2,2,25,592,1
118,2,2,26,527,1
118,2,2,27,474,1
118,2,2,28,907,0
118,2,2,29,562,1
118,2,2,30,527,1
118,2,2,31,639,1
118,2,2,32,883,0
118,2,2,33,498,1
118,2,2,34,712,1
118,2,2,35,528,1
118,2,2,36,767,1
118,2,2,37,529,1
118,2,2,38,717,1
118,2,2,39,490,1
118,2,2,40,753,1
104,2,1,1,872,1
104,2,1,2,1008,1
104,2,1,3,754,1
104,2,1,4,814,1
104,2,1,5,712,1
104,2,1,6,686,1
104,2,1,7,862,1
104,2,1,8,742,1
104,2,1,9,651,1
104,2,1,10,795,1
104,2,1,11,622,1
104,2,1,12,784,1
104,2,1,13,603,1
104,2,1,14,733,1
104,2,1,15,859,1
104,2,1,16,859,1
104,2,1,17,843,1
104,2,1,18,772,1
104,2,1,19,640,1
104,2,1,20,872,1
104,2,1,21,584,1
104,2,1,22,603,1
104,2,1,23,566,1
104,2,1,24,522,1
104,2,1,25,752,1
104,2,1,26,700,1
104,2,1,27,626,1
104,2,1,28,724,1
104,2,1,29,578,1
104,2,1,30,709,1
104,2,1,31,508,1
104,2,1,32,491,1
104,2,1,33,594,1
104,2,1,34,605,1
104,2,1,35,607,1
104,2,1,36,498,1
104,2,1,37,656,1
104,2,1,38,609,1
104,2,1,39,620,1
104,2,1,40,661,1
104,2,2,1,1004,1
104,2,2,2,678,1
104,2,2,3,670,1
104,2,2,4,566,1
104,2,2,5,602,1
104,2,2,6,549,1
104,2,2,7,458,1
104,2,2,8,738,1
104,2,2,9,1055,1
104,2,2,10,551,1
104,2,2,11,572,1
104,2,2,12,640,1
104,2,2,13,641,1
104,2,2,14,666,1
104,2,2,15,658,1
104,2,2,16,690,1
104,2,2,17,601,1
104,2,2,18,804,1
104,2,2,19,590,1
104,2,2,20,689,1
104,2,2,21,624,1
104,2,2,22,602,1
104,2,2,23,948,1
104,2,2,24,809,1
104,2,2,25,579,1
104,2,2,26,895,1
104,2,2,27,654,1
104,2,2,28,686,1
104,2,2,29,597,1
104,2,2,30,840,1
104,2,2,31,585,1
104,2,2,32,684,1
104,2,2,33,587,1
104,2,2,34,646,1
104,2,2,35,528,1
104,2,2,36,605,1
104,2,2,37,751,1
104,2,2,38,596,1
104,2,2,39,647,1
104,2,2,40,784,1
121,1,1,1,815,1
121,1,1,2,554,1
121,1,1,3,464,1
121,1,1,4,585,1
121,1,1,5,533,1
121,1,1,6,531,1
121,1,1,7,474,1
121,1,1,8,466,1
121,1,1,9,595,1
121,1,1,10,495,1
121,1,1,11,487,1
121,1,1,12,535,1
121,1,1,13,597,1
121,1,1,14,617,1
121,1,1,15,571,1
121,1,1,16,600,1
121,1,1,17,571,1
121,1,1,18,528,1
121,1,1,19,591,1
121,1,1,20,547,1
121,1,1,21,505,1
121,1,1,22,472,1
121,1,1,23,529,1
121,1,1,24,631,1
121,1,1,25,554,1
121,1,1,26,543,1
121,1,1,27,613,1
121,1,1,28,576,1
121,1,1,29,605,1
121,1,1,30,568,1
121,1,1,31,525,1
121,1,1,32,644,1
121,1,1,33,574,1
121,1,1,34,554,1
121,1,1,35,560,1
121,1,1,36,653,1
121,1,1,37,518,1
121,1,1,38,493,1
121,1,1,39,1045,0
121,1,1,40,550,1
121,1,2,1,1501,1
121,1,2,2,724,1
121,1,2,3,611,1
121,1,2,4,638,1
121,1,2,5,584,1
121,1,2,6,612,1
121,1,2,7,640,1
121,1,2,8,554,1
121,1,2,9,639,1
121,1,2,10,665,1
121,1,2,11,634,1
121,1,2,12,548,1
121,1,2,13,602,1
121,1,2,14,581,1
121,1,2,15,522,1
121,1,2,16,809,1
121,1,2,17,620,1
121,1,2,18,711,1
121,1,2,19,590,1
121,1,2,20,554,1
121,1,2,21,559,1
121,1,2,22,797,1
121,1,2,23,561,1
121,1,2,24,542,1
121,1,2,25,548,1
121,1,2,26,570,1
121,1,2,27,590,1
121,1,2,28,610,1
121,1,2,29,798,1
121,1,2,30,610,1
121,1,2,31,629,1
121,1,2,32,936,1
121,1,2,33,654,1
121,1,2,34,839,1
121,1,2,35,609,1
121,1,2,36,788,1
121,1,2,37,728,1
121,1,2,38,615,1
121,1,2,39,658,1
121,1,2,40,580,1
87,1,1,1,877,1
87,1,1,2,861,1
87,1,1,3,702,1
87,1,1,4,576,1
87,1,1,5,658,1
87,1,1,6,634,1
87,1,1,7,732,1
87,1,1,8,708,1
87,1,1,9,707,1
87,1,1,10,719,1
87,1,1,11,847,1
87,1,1,12,697,1
87,1,1,13,654,1
87,1,1,14,736,1
87,1,1,15,729,1
87,1,1,16,673,1
87,1,1,17,557,1
87,1,1,18,967,1
87,1,1,19,661,1
87,1,1,20,684,1
87,1,1,21,819,1
87,1,1,22,686,1
87,1,1,23,673,1
87,1,1,24,758,1
87,1,1,25,572,1
87,1,1,26,738,1
87,1,1,27,612,1
87,1,1,28,645,1
87,1,1,29,664,1
87,1,1,30,846,1
87,1,1,31,606,1
87,1,1,32,796,1
87,1,1,33,680,1
87,1,1,34,642,1
87,1,1,35,723,1
87,1,1,36,689,1
87,1,1,37,654,1
87,1,1,38,868,1
87,1,1,39,685,1
87,1,1,40,721,1
87,1,2,1,785,1
87,1,2,2,716,1
87,1,2,3,539,1
87,1,2,4,793,1
87,1,2,5,949,1
87,1,2,6,847,1
87,1,2,7,581,1
87,1,2,8,650,1
87,1,2,9,638,1
87,1,2,10,721,1
87,1,2,11,632,1
87,1,2,12,553,1
87,1,2,13,585,1
87,1,2,14,576,1
87,1,2,15,622,1
87,1,2,16,686,1
87,1,2,17,648,1
87,1,2,18,795,1
87,1,2,19,647,1
87,1,2,20,736,1
87,1,2,21,628,1
87,1,2,22,745,1
87,1,2,23,604,1
87,1,2,24,848,1
87,1,2,25,609,1
87,1,2,26,659,1
87,1,2,27,680,1
87,1,2,28,892,1
87,1,2,29,790,1
87,1,2,30,776,1
87,1,2,31,605,1
87,1,2,32,905,1
87,1,2,33,739,1
87,1,2,34,752,1
87,1,2,35,754,1
87,1,2,36,579,1
87,1,2,37,610,1
87,1,2,38,709,1
87,1,2,39,583,1
87,1,2,40,805,1
98,2,1,1,981,1
98,2,1,2,673,1
98,2,1,3,458,1
98,2,1,4,491,1
98,2,1,5,539,1
98,2,1,6,441,1
98,2,1,7,443,1
98,2,1,8,477,1
98,2,1,9,390,1
98,2,1,10,497,1
98,2,1,11,489,1
98,2,1,12,441,1
98,2,1,13,347,1
98,2,1,14,409,1
98,2,1,15,492,1
98,2,1,16,468,1
98,2,1,17,429,1
98,2,1,18,383,1
98,2,1,19,411,1
98,2,1,20,639,1
98,2,1,21,505,1
98,2,1,22,384,1
98,2,1,23,364,1
98,2,1,24,473,1
98,2,1,25,522,1
98,2,1,26,568,1
98,2,1,27,445,1
98,2,1,28,583,1
98,2,1,29,515,1
98,2,1,30,818,1
98,2,1,31,517,1
98,2,1,32,636,1
98,2,1,33,470,1
98,2,1,34,446,1
98,2,1,35,384,1
98,2,1,36,468,1
98,2,1,37,485,1
98,2,1,38,637,1
98,2,1,39,599,1
98,2,1,40,378,1
98,2,2,1,660,1
98,2,2,2,829,1
98,2,2,3,576,1
98,2,2,4,684,1
98,2,2,5,580,1
98,2,2,6,617,1
98,2,2,7,444,1
98,2,2,8,645,1
98,2,2,9,495,1
98,2,2,10,599,1
98,2,2,11,442,1
98,2,2,12,1004,1
98,2,2,13,423,1
98,2,2,14,555,1
98,2,2,15,471,1
98,2,2,16,672,1
98,2,2,17,481,1
98,2,2,18,585,1
98,2,2,19,573,1
98,2,2,20,538,1
98,2,2,21,560,1
98,2,2,22,629,1
98,2,2,23,560,1
98,2,2,24,981,1
98,2,2,25,690,1
98,2,2,26,618,1
98,2,2,27,436,1
98,2,2,28,606,1
98,2,2,29,689,1
98,2,2,30,594,1
98,2,2,31,662,1
98,2,2,32,519,1
98,2,2,33,446,1
98,2,2,34,583,1
98,2,2,35,475,1
98,2,2,36,500,1
98,2,2,37,467,1
98,2,2,38,604,1
98,2,2,39,575,1
98,2,2,40,676,1
99,1,1,1,789,1
99,1,1,2,647,1
99,1,1,3,670,1
99,1,1,4,640,1
99,1,1,5,614,1
99,1,1,6,895,1
99,1,1,7,612,1
99,1,1,8,424,1
99,1,1,9,633,1
99,1,1,10,395,1
99,1,1,11,454,1
99,1,1,12,530,1
99,1,1,13,444,1
99,1,1,14,623,1
99,1,1,15,566,1
99,1,1,16,507,1
99,1,1,17,661,1
99,1,1,18,441,1
99,1,1,19,693,1
99,1,1,20,790,1
99,1,1,21,622,1
99,1,1,22,512,1
99,1,1,23,606,1
99,1,1,24,574,1
99,1,1,25,424,1
99,1,1,26,548,1
99,1,1,27,457,1
99,1,1,28,437,1
99,1,1,29,433,1
99,1,1,30,526,1
99,1,1,31,436,1
99,1,1,32,588,1
99,1,1,33,465,1
99,1,1,34,492,1
99,1,1,35,352,1
99,1,1,36,549,1
99,1,1,37,423,1
99,1,1,38,684,1
99,1,1,39,401,1
99,1,1,40,462,1
99,1,2,1,1956,1
99,1,2,2,772,1
99,1,2,3,949,1
99,1,2,4,1064,1
99,1,2,5,851,1
99,1,2,6,1128,1
99,1,2,7,630,1
99,1,2,8,650,1
99,1,2,9,900,1
99,1,2,10,768,1
99,1,2,11,716,1
99,1,2,12,1197,0
99,1,2,13,582,1
99,1,2,14,885,1
99,1,2,15,805,1
99,1,2,16,773,1
99,1,2,17,667,1
99,1,2,18,734,1
99,1,2,19,1167,1
99,1,2,20,507,1
99,1,2,21,1781,1
99,1,2,22,951,1
99,1,2,23,758,1
99,1,2,24,839,1
99,1,2,25,656,1
99,1,2,26,623,1
99,1,2,27,781,1
99,1,2,28,601,1
99,1,2,29,612,1
99,1,2,30,992,1
99,1,2,31,606,1
99,1,2,32,686,1
99,1,2,33,788,1
99,1,2,34,575,1
99,1,2,35,655,1
99,1,2,36,593,1
99,1,2,37,989,0
99,1,2,38,744,1
99,1,2,39,571,1
99,1,2,40,781,1
88,2,1,1,2195,1
88,2,1,2,1602,1
88,2,1,3,773,1
88,2,1,4,1357,1
88,2,1,5,1346,1
88,2,1,6,1060,1
88,2,1,7,882,1
88,2,1,8,891,1
88,2,1,9,636,1
88,2,1,10,755,1
88,2,1,11,1037,1
88,2,1,12,630,1
88,2,1,13,733,1
88,2,1,14,753,1
88,2,1,15,677,1
88,2,1,16,778,1
88,2,1,17,643,1
88,2,1,18,885,1
88,2,1,19,740,1
88,2,1,20,897,1
88,2,1,21,800,1
88,2,1,22,706,1
88,2,1,23,934,1
88,2,1,24,1189,1
88,2,1,25,646,1
88,2,1,26,614,1
88,2,1,27,571,1
88,2,1,28,1200,1
88,2,1,29,662,1
88,2,1,30,697,1
88,2,1,31,741,1
88,2,1,32,610,1
88,2,1,33,698,1
88,2,1,34,573,1
88,2,1,35,700,1
88,2,1,36,608,1
88,2,1,37,611,1
88,2,1,38,609,1
88,2,1,39,551,1
88,2,1,40,471,1
88,2,2,1,922,1
88,2,2,2,716,1
88,2,2,3,813,1
88,2,2,4,499,1
88,2,2,5,629,1
88,2,2,6,1250,1
88,2,2,7,959,1
88,2,2,8,1333,1
88,2,2,9,950,1
88,2,2,10,1045,1
88,2,2,11,992,1
88,2,2,12,1208,1
88,2,2,13,1164,1
88,2,2,14,773,1
88,2,2,15,786,1
88,2,2,16,814,1
88,2,2,17,927,1
88,2,2,18,1163,1
88,2,2,19,1007,1
88,2,2,20,697,1
88,2,2,21,713,1
88,2,2,22,933,1
88,2,2,23,751,1
88,2,2,24,873,1
88,2,2,25,799,1
88,2,2,26,766,1
88,2,2,27,721,1
88,2,2,28,1488,0
88,2,2,29,868,1
88,2,2,30,1252,1
88,2,2,31,704,1
88,2,2,32,624,1
88,2,2,33,810,1
88,2,2,34,1458,1
88,2,2,35,1221,1
88,2,2,36,769,1
88,2,2,37,628,1
88,2,2,38,844,1
88,2,2,39,2539,0
88,2,2,40,857,1
103,1,1,1,794,1
103,1,1,2,506,1
103,1,1,3,438,1
103,1,1,4,550,1
103,1,1,5,625,1
103,1,1,6,488,1
103,1,1,7,597,0
103,1,1,8,765,1
103,1,1,9,559,1
103,1,1,10,537,1
103,1,1,11,820,0
103,1,1,12,546,1
103,1,1,13,429,1
103,1,1,14,493,1
103,1,1,15,475,1
103,1,1,16,472,1
103,1,1,17,454,1
103,1,1,18,469,1
103,1,1,19,435,1
103,1,1,20,642,0
103,1,1,21,584,1
103,1,1,22,466,1
103,1,1,23,416,1
103,1,1,24,481,1
103,1,1,25,687,1
103,1,1,26,596,1
103,1,1,27,525,1
103,1,1,28,680,1
103,1,1,29,493,1
103,1,1,30,378,1
103,1,1,31,493,1
103,1,1,32,458,1
103,1,1,33,505,1
103,1,1,34,741,0
103,1,1,35,679,1
103,1,1,36,476,1
103,1,1,37,842,0
103,1,1,38,487,1
103,1,1,39,468,1
103,1,1,40,850,0
103,1,2,1,688,1
103,1,2,2,644,1
103,1,2,3,715,1
103,1,2,4,495,1
103,1,2,5,444,1
103,1,2,6,459,1
103,1,2,7,554,1
103,1,2,8,485,1
103,1,2,9,610,1
103,1,2,10,473,1
103,1,2,11,551,1
103,1,2,12,530,1
103,1,2,13,541,1
103,1,2,14,904,0
103,1,2,15,563,1
103,1,2,16,749,1
103,1,2,17,639,1
103,1,2,18,1078,0
103,1,2,19,649,1
103,1,2,20,624,1
103,1,2,21,727,1
103,1,2,22,714,1
103,1,2,23,478,1
103,1,2,24,796,1
103,1,2,25,412,1
103,1,2,26,685,1
103,1,2,27,641,1
103,1,2,28,616,1
103,1,2,29,688,1
103,1,2,30,596,1
103,1,2,31,925,0
103,1,2,32,999,1
103,1,2,33,558,1
103,1,2,34,585,1
103,1,2,35,481,1
103,1,2,36,447,1
103,1,2,37,623,1
103,1,2,38,599,1
103,1,2,39,783,1
103,1,2,40,768,1
109,1,1,1,603,1
109,1,1,2,582,1
109,1,1,3,530,1
109,1,1,4,385,1
109,1,1,5,421,1
109,1,1,6,359,1
109,1,1,7,541,1
109,1,1,8,475,1
109,1,1,9,460,1
109,1,1,10,461,1
109,1,1,11,846,0
109,1,1,12,767,1
109,1,1,13,644,1
109,1,1,14,782,1
109,1,1,15,434,1
109,1,1,16,420,1
109,1,1,17,455,1
109,1,1,18,600,1
109,1,1,19,484,1
109,1,1,20,435,1
109,1,1,21,390,1
109,1,1,22,522,1
109,1,1,23,504,1
109,1,1,24,568,1
109,1,1,25,500,1
109,1,1,26,483,1
109,1,1,27,579,1
109,1,1,28,448,1
109,1,1,29,594,1
109,1,1,30,462,1
109,1,1,31,527,1
109,1,1,32,510,1
109,1,1,33,557,1
109,1,1,34,459,1
109,1,1,35,492,1
109,1,1,36,492,1
109,1,1,37,540,1
109,1,1,38,410,1
109,1,1,39,382,1
109,1,1,40,498,1
109,1,2,1,1236,1
109,1,2,2,870,1
109,1,2,3,839,1
109,1,2,4,697,1
109,1,2,5,593,1
109,1,2,6,589,1
109,1,2,7,633,1
109,1,2,8,787,1
109,1,2,9,615,1
109,1,2,10,434,1
109,1,2,11,964,1
109,1,2,12,721,1
109,1,2,13,552,1
109,1,2,14,437,1
109,1,2,15,743,1
109,1,2,16,493,1
109,1,2,17,461,1
109,1,2,18,399,1
109,1,2,19,466,1
109,1,2,20,722,1
109,1,2,21,585,1
109,1,2,22,453,1
109,1,2,23,695,1
109,1,2,24,638,1
109,1,2,25,472,1
109,1,2,26,601,1
109,1,2,27,740,1
109,1,2,28,458,1
109,1,2,29,428,1
109,1,2,30,702,1
109,1,2,31,678,1
109,1,2,32,958,1
109,1,2,33,556,1
109,1,2,34,745,1
109,1,2,35,639,1
109,1,2,36,585,1
109,1,2,37,453,1
109,1,2,38,502,1
109,1,2,39,454,1
109,1,2,40,455,1
69,1,1,1,2912,1
69,1,1,2,744,1
69,1,1,3,805,1
69,1,1,4,633,1
69,1,1,5,915,1
69,1,1,6,690,1
69,1,1,7,538,1
69,1,1,8,560,1
69,1,1,9,950,1
69,1,1,10,987,1
69,1,1,11,527,1
69,1,1,12,373,1
69,1,1,13,474,1
69,1,1,14,923,0
69,1,1,15,633,1
69,1,1,16,1723,1
69,1,1,17,730,0
69,1,1,18,1088,1
69,1,1,19,1152,1
69,1,1,20,597,1
69,1,1,21,753,1
69,1,1,22,622,1
69,1,1,23,945,1
69,1,1,24,767,1
69,1,1,25,748,1
69,1,1,26,1201,1
69,1,1,27,1053,1
69,1,1,28,1102,1
69,1,1,29,733,1
69,1,1,30,1179,1
69,1,1,31,1200,1
69,1,1,32,1395,1
69,1,1,33,1063,1
69,1,1,34,1649,1
69,1,1,35,1155,1
69,1,1,36,1768,1
69,1,1,37,1189,1
69,1,1,38,1505,1
69,1,1,39,1704,1
69,1,1,40,703,1
69,1,2,1,973,1
69,1,2,2,3322,1
69,1,2,3,640,1
69,1,2,4,538,1
69,1,2,5,624,1
69,1,2,6,707,1
69,1,2,7,706,1
69,1,2,8,1201,1
69,1,2,9,1653,1
69,1,2,10,1286,1
69,1,2,11,686,1
69,1,2,12,1438,1
69,1,2,13,720,1
69,1,2,14,903,1
69,1,2,15,686,1
69,1,2,16,294,1
69,1,2,17,974,0
69,1,2,18,714,0
69,1,2,19,225,1
69,1,2,20,131,1
69,1,2,21,714,0
69,1,2,22,617,0
69,1,2,23,755,1
69,1,2,24,656,1
69,1,2,25,826,1
69,1,2,26,708,0
69,1,2,27,851,1
69,1,2,28,1468,1
69,1,2,29,605,0
69,1,2,30,191,1
69,1,2,31,1059,0
69,1,2,32,916,1
69,1,2,33,987,1
69,1,2,34,303,1
69,1,2,35,118,1
69,1,2,36,93,1
69,1,2,37,157,1
69,1,2,38,43,1
69,1,2,39,1324,0
69,1,2,40,1170,1
105,1,1,1,1104,1
105,1,1,2,1900,1
105,1,1,3,666,1
105,1,1,4,863,1
105,1,1,5,635,1
105,1,1,6,462,1
105,1,1,7,626,1
105,1,1,8,665,1
105,1,1,9,666,1
105,1,1,10,487,1
105,1,1,11,932,1
105,1,1,12,639,1
105,1,1,13,655,1
105,1,1,14,661,1
105,1,1,15,582,1
105,1,1,16,494,1
105,1,1,17,578,1
105,1,1,18,563,1
105,1,1,19,570,1
105,1,1,20,1360,0
105,1,1,21,720,1
105,1,1,22,555,1
105,1,1,23,638,1
105,1,1,24,593,1
105,1,1,25,660,1
105,1,1,26,499,1
105,1,1,27,589,1
105,1,1,28,574,1
105,1,1,29,610,1
105,1,1,30,654,1
105,1,1,31,642,1
105,1,1,32,559,1
105,1,1,33,804,1
105,1,1,34,771,1
105,1,1,35,660,1
105,1,1,36,804,1
105,1,1,37,695,1
105,1,1,38,518,1
105,1,1,39,535,1
105,1,1,40,602,1
105,1,2,1,1135,1
105,1,2,2,585,1
105,1,2,3,907,1
105,1,2,4,789,1
105,1,2,5,458,1
105,1,2,6,733,1
105,1,2,7,889,1
105,1,2,8,644,1
105,1,2,9,1054,1
105,1,2,10,704,1
105,1,2,11,944,1
105,1,2,12,828,1
105,1,2,13,685,1
105,1,2,14,567,1
105,1,2,15,1393,1
105,1,2,16,697,1
105,1,2,17,864,1
105,1,2,18,651,1
105,1,2,19,625,1
105,1,2,20,660,1
105,1,2,21,752,1
105,1,2,22,938,1
105,1,2,23,902,1
105,1,2,24,572,1
105,1,2,25,529,1
105,1,2,26,563,1
105,1,2,27,541,1
105,1,2,28,740,1
105,1,2,29,609,1
105,1,2,30,503,1
105,1,2,31,836,1
105,1,2,32,1033,0
105,1,2,33,715,1
105,1,2,34,650,1
105,1,2,35,941,1
105,1,2,36,752,1
105,1,2,37,677,1
105,1,2,38,815,1
105,1,2,39,535,1
105,1,2,40,610,1
91,1,1,1,693,1
91,1,1,2,546,1
91,1,1,3,591,1
91,1,1,4,485,1
91,1,1,5,495,1
91,1,1,6,467,1
91,1,1,7,432,1
91,1,1,8,599,1
91,1,1,9,886,1
91,1,1,10,559,1
91,1,1,11,673,1
91,1,1,12,462,1
91,1,1,13,427,1
91,1,1,14,424,1
91,1,1,15,415,1
91,1,1,16,534,1
91,1,1,17,561,1
91,1,1,18,463,1
91,1,1,19,547,1
91,1,1,20,528,1
91,1,1,21,487,1
91,1,1,22,437,1
91,1,1,23,487,1
91,1,1,24,813,1
91,1,1,25,591,1
91,1,1,26,546,1
91,1,1,27,493,1
91,1,1,28,444,1
91,1,1,29,550,1
91,1,1,30,460,1
91,1,1,31,467,1
91,1,1,32,466,1
91,1,1,33,476,1
91,1,1,34,420,1
91,1,1,35,554,1
91,1,1,36,447,1
91,1,1,37,429,1
91,1,1,38,492,1
91,1,1,39,521,1
91,1,1,40,422,1
91,1,2,1,1360,1
91,1,2,2,1089,1
91,1,2,3,836,1
91,1,2,4,1076,1
91,1,2,5,816,1
91,1,2,6,922,1
91,1,2,7,633,1
91,1,2,8,723,1
91,1,2,9,707,1
91,1,2,10,770,1
91,1,2,11,637,1
91,1,2,12,1028,1
91,1,2,13,788,1
91,1,2,14,1164,1
91,1,2,15,703,1
91,1,2,16,1072,1
91,1,2,17,693,1
91,1,2,18,1057,1
91,1,2,19,678,1
91,1,2,20,810,1
91,1,2,21,710,1
91,1,2,22,871,1
91,1,2,23,637,1
91,1,2,24,702,1
91,1,2,25,783,1
91,1,2,26,1040,1
91,1,2,27,789,1
91,1,2,28,597,1
91,1,2,29,930,1
91,1,2,30,675,1
91,1,2,31,695,1
91,1,2,32,817,1
91,1,2,33,648,1
91,1,2,34,859,1
91,1,2,35,704,1
91,1,2,36,679,1
91,1,2,37,743,1
91,1,2,38,890,1
91,1,2,39,623,1
91,1,2,40,1135,1
71,1,1,1,964,1
71,1,1,2,549,1
71,1,1,3,401,1
71,1,1,4,481,1
71,1,1,5,394,1
71,1,1,6,411,1
71,1,1,7,466,1
71,1,1,8,409,1
71,1,1,9,396,1
71,1,1,10,679,1
71,1,1,11,364,1
71,1,1,12,373,1
71,1,1,13,358,1
71,1,1,14,475,1
71,1,1,15,426,1
71,1,1,16,247,1
71,1,1,17,361,1
71,1,1,18,383,1
71,1,1,19,370,1
71,1,1,20,354,1
71,1,1,21,429,1
71,1,1,22,318,1
71,1,1,23,402,1
71,1,1,24,330,1
71,1,1,25,368,1
71,1,1,26,453,1
71,1,1,27,614,1
71,1,1,28,460,1
71,1,1,29,438,1
71,1,1,30,470,1
71,1,1,31,515,1
71,1,1,32,615,1
71,1,1,33,576,1
71,1,1,34,432,1
71,1,1,35,485,1
71,1,1,36,343,1
71,1,1,37,306,1
71,1,1,38,331,1
71,1,1,39,437,1
71,1,1,40,431,1
71,1,2,1,708,1
71,1,2,2,424,1
71,1,2,3,510,1
71,1,2,4,486,1
71,1,2,5,460,1
71,1,2,6,393,1
71,1,2,7,826,1
71,1,2,8,614,1
71,1,2,9,435,1
71,1,2,10,401,1
71,1,2,11,512,1
71,1,2,12,493,1
71,1,2,13,421,1
71,1,2,14,440,1
71,1,2,15,417,1
71,1,2,16,951,0
71,1,2,17,532,1
71,1,2,18,1003,0
71,1,2,19,514,1
71,1,2,20,621,1
71,1,2,21,532,1
71,1,2,22,887,0
71,1,2,23,506,1
71,1,2,24,352,1
71,1,2,25,414,1
71,1,2,26,548,1
71,1,2,27,401,1
71,1,2,28,383,1
71,1,2,29,427,1
71,1,2,30,467,1
71,1,2,31,548,1
71,1,2,32,500,1
71,1,2,33,462,1
71,1,2,34,842,0
71,1,2,35,456,1
71,1,2,36,588,1
71,1,2,37,493,1
71,1,2,38,500,1
71,1,2,39,478,1
71,1,2,40,1038,0
77,1,1,1,503,1
77,1,1,2,486,1
77,1,1,3,390,1
77,1,1,4,458,1
77,1,1,5,460,1
77,1,1,6,509,1
77,1,1,7,428,1
77,1,1,8,383,1
77,1,1,9,435,1
77,1,1,10,437,1
77,1,1,11,423,1
77,1,1,12,426,1
77,1,1,13,396,1
77,1,1,14,464,1
77,1,1,15,465,1
77,1,1,16,434,1
77,1,1,17,436,1
77,1,1,18,454,1
77,1,1,19,391,1
77,1,1,20,363,1
77,1,1,21,385,1
77,1,1,22,405,1
77,1,1,23,392,1
77,1,1,24,412,1
77,1,1,25,479,1
77,1,1,26,400,1
77,1,1,27,515,1
77,1,1,28,435,1
77,1,1,29,469,1
77,1,1,30,469,1
77,1,1,31,390,1
77,1,1,32,442,1
77,1,1,33,460,1
77,1,1,34,413,1
77,1,1,35,432,1
77,1,1,36,498,1
77,1,1,37,402,1
77,1,1,38,438,1
77,1,1,39,424,1
77,1,1,40,490,1
77,1,2,1,599,1
77,1,2,2,403,1
77,1,2,3,406,1
77,1,2,4,393,1
77,1,2,5,541,1
77,1,2,6,459,1
77,1,2,7,509,1
77,1,2,8,476,1
77,1,2,9,557,1
77,1,2,10,474,1
77,1,2,11,474,1
77,1,2,12,491,1
77,1,2,13,427,1
77,1,2,14,510,1
77,1,2,15,541,1
77,1,2,16,635,1
77,1,2,17,501,1
77,1,2,18,420,1
77,1,2,19,535,1
77,1,2,20,437,1
77,1,2,21,471,1
77,1,2,22,680,1
77,1,2,23,512,1
77,1,2,24,399,1
77,1,2,25,739,1
77,1,2,26,585,1
77,1,2,27,581,1
77,1,2,28,514,1
77,1,2,29,705,1
77,1,2,30,504,1
77,1,2,31,567,1
77,1,2,32,756,1
77,1,2,33,617,1
77,1,2,34,612,1
77,1,2,35,495,1
77,1,2,36,495,1
77,1,2,37,575,1
77,1,2,38,540,1
77,1,2,39,522,1
77,1,2,40,825,1
59,1,1,1,1091,1
59,1,1,2,559,1
59,1,1,3,617,1
59,1,1,4,586,1
59,1,1,5,535,1
59,1,1,6,527,1
59,1,1,7,520,1
59,1,1,8,683,1
59,1,1,9,586,1
59,1,1,10,503,1
59,1,1,11,552,1
59,1,1,12,591,1
59,1,1,13,567,1
59,1,1,14,597,1
59,1,1,15,550,1
59,1,1,16,555,1
59,1,1,17,439,1
59,1,1,18,473,1
59,1,1,19,760,1
59,1,1,20,555,1
59,1,1,21,1723,0
59,1,1,22,786,1
59,1,1,23,554,1
59,1,1,24,771,1
59,1,1,25,612,1
59,1,1,26,515,1
59,1,1,27,705,1
59,1,1,28,542,1
59,1,1,29,630,1
59,1,1,30,448,1
59,1,1,31,394,1
59,1,1,32,558,1
59,1,1,33,785,1
59,1,1,34,544,1
59,1,1,35,575,1
59,1,1,36,501,1
59,1,1,37,693,1
59,1,1,38,568,1
59,1,1,39,598,1
59,1,1,40,537,1
59,1,2,1,1801,1
59,1,2,2,1117,1
59,1,2,3,766,1
59,1,2,4,912,1
59,1,2,5,888,1
59,1,2,6,720,1
59,1,2,7,865,1
59,1,2,8,631,1
59,1,2,9,1011,1
59,1,2,10,790,1
59,1,2,11,643,1
59,1,2,12,793,1
59,1,2,13,1172,1
59,1,2,14,582,1
59,1,2,15,1461,0
59,1,2,16,1281,1
59,1,2,17,801,1
59,1,2,18,707,1
59,1,2,19,646,1
59,1,2,20,765,1
59,1,2,21,907,1
59,1,2,22,897,1
59,1,2,23,707,1
59,1,2,24,878,1
59,1,2,25,808,1
59,1,2,26,697,1
59,1,2,27,698,1
59,1,2,28,1162,0
59,1,2,29,1028,1
59,1,2,30,808,1
