"participant","condition","block","trial_n","rt","accuracy"
570,2,1,1,652,1
570,2,1,2,477,1
570,2,1,3,557,1
570,2,1,4,403,1
570,2,1,5,519,1
570,2,1,6,581,1
570,2,1,7,626,1
570,2,1,8,525,1
570,2,1,9,476,1
570,2,1,10,436,1
570,2,1,11,478,1
570,2,1,12,463,1
570,2,1,13,529,1
570,2,1,14,599,1
570,2,1,15,459,1
570,2,1,16,612,1
570,2,1,17,471,1
570,2,1,18,496,1
570,2,1,19,432,1
570,2,1,20,523,1
570,2,1,21,473,1
570,2,1,22,530,1
570,2,1,23,416,1
570,2,1,24,476,1
570,2,1,25,508,1
570,2,1,26,475,1
570,2,1,27,444,1
570,2,1,28,479,1
570,2,1,29,407,1
570,2,1,30,595,1
570,2,1,31,415,1
570,2,1,32,587,1
570,2,1,33,526,1
570,2,1,34,453,1
570,2,1,35,486,1
570,2,1,36,471,1
570,2,1,37,487,1
570,2,1,38,391,1
570,2,1,39,595,1
570,2,1,40,599,1
570,2,2,1,479,1
570,2,2,2,609,1
570,2,2,3,572,1
570,2,2,4,505,1
570,2,2,5,529,1
570,2,2,6,511,1
570,2,2,7,535,1
570,2,2,8,572,1
570,2,2,9,521,1
570,2,2,10,440,1
570,2,2,11,531,1
570,2,2,12,425,1
570,2,2,13,539,1
570,2,2,14,610,1
570,2,2,15,509,1
570,2,2,16,604,1
570,2,2,17,512,1
570,2,2,18,583,1
570,2,2,19,444,1
570,2,2,20,494,1
570,2,2,21,502,1
570,2,2,22,549,1
570,2,2,23,483,1
570,2,2,24,483,1
570,2,2,25,491,1
570,2,2,26,395,1
570,2,2,27,407,1
570,2,2,28,699,0
570,2,2,29,594,1
570,2,2,30,574,1
570,2,2,31,547,1
570,2,2,32,616,1
570,2,2,33,508,1
570,2,2,34,595,1
570,2,2,35,511,1
570,2,2,36,607,1
570,2,2,37,426,1
570,2,2,38,476,1
570,2,2,39,517,1
570,2,2,40,444,1
567,1,1,1,1329,1
567,1,1,2,595,1
567,1,1,3,391,1
567,1,1,4,450,1
567,1,1,5,645,1
567,1,1,6,982,1
567,1,1,7,779,1
567,1,1,8,866,1
567,1,1,9,645,1
567,1,1,10,558,1
567,1,1,11,575,1
567,1,1,12,865,1
567,1,1,13,511,1
567,1,1,14,495,1
567,1,1,15,550,1
567,1,1,16,322,1
567,1,1,17,341,1
567,1,1,18,312,1
567,1,1,19,309,1
567,1,1,20,325,1
567,1,1,21,399,1
567,1,1,22,509,1
567,1,1,23,513,1
567,1,1,24,606,1
567,1,1,25,580,1
567,1,1,26,595,1
567,1,1,27,837,0
567,1,1,28,763,1
567,1,1,29,419,1
567,1,1,30,415,1
567,1,1,31,568,1
567,1,1,32,571,1
567,1,1,33,583,1
567,1,1,34,650,1
567,1,1,35,585,1
567,1,1,36,555,1
567,1,1,37,524,1
567,1,1,38,502,1
567,1,1,39,748,1
567,1,1,40,509,1
567,1,2,1,1017,1
567,1,2,2,866,1
567,1,2,3,891,1
567,1,2,4,760,1
567,1,2,5,797,1
567,1,2,6,1243,1
567,1,2,7,658,1
567,1,2,8,978,1
567,1,2,9,670,1
567,1,2,10,866,1
567,1,2,11,743,1
567,1,2,12,1272,1
567,1,2,13,710,1
567,1,2,14,677,1
567,1,2,15,897,1
567,1,2,16,1693,1
567,1,2,17,983,1
567,1,2,18,884,1
567,1,2,19,982,1
567,1,2,20,865,1
567,1,2,21,1131,1
567,1,2,22,904,1
567,1,2,23,903,1
567,1,2,24,850,1
567,1,2,25,750,1
567,1,2,26,820,1
567,1,2,27,1758,1
567,1,2,28,2071,1
567,1,2,29,671,1
567,1,2,30,626,1
567,1,2,31,740,1
567,1,2,32,537,1
567,1,2,33,801,1
567,1,2,34,718,1
567,1,2,35,836,1
567,1,2,36,808,1
567,1,2,37,854,1
567,1,2,38,542,1
567,1,2,39,442,1
567,1,2,40,796,1
569,1,1,1,474,1
569,1,1,2,453,1
569,1,1,3,465,1
569,1,1,4,380,1
569,1,1,5,454,1
569,1,1,6,413,1
569,1,1,7,461,1
569,1,1,8,352,1
569,1,1,9,432,1
569,1,1,10,541,1
569,1,1,11,567,1
569,1,1,12,486,1
569,1,1,13,431,1
569,1,1,14,414,1
569,1,1,15,421,1
569,1,1,16,444,1
569,1,1,17,464,1
569,1,1,18,400,1
569,1,1,19,409,1
569,1,1,20,418,1
569,1,1,21,413,1
569,1,1,22,395,1
569,1,1,23,436,1
569,1,1,24,510,1
569,1,1,25,340,1
569,1,1,26,515,1
569,1,1,27,362,1
569,1,1,28,431,1
569,1,1,29,467,1
569,1,1,30,422,1
569,1,1,31,414,1
569,1,1,32,491,1
569,1,1,33,648,1
569,1,1,34,350,1
569,1,1,35,440,1
569,1,1,36,544,1
569,1,1,37,593,1
569,1,1,38,449,1
569,1,1,39,477,1
569,1,1,40,410,1
569,1,2,1,471,1
569,1,2,2,851,1
569,1,2,3,635,1
569,1,2,4,430,1
569,1,2,5,682,1
569,1,2,6,611,1
569,1,2,7,497,1
569,1,2,8,656,1
569,1,2,9,531,1
569,1,2,10,639,1
569,1,2,11,588,1
569,1,2,12,498,1
569,1,2,13,477,1
569,1,2,14,457,1
569,1,2,15,535,1
569,1,2,16,495,1
569,1,2,17,467,1
569,1,2,18,484,1
569,1,2,19,904,0
569,1,2,20,918,0
569,1,2,21,692,1
569,1,2,22,577,1
569,1,2,23,381,1
569,1,2,24,421,1
569,1,2,25,585,1
569,1,2,26,532,1
569,1,2,27,424,1
569,1,2,28,426,1
569,1,2,29,534,1
569,1,2,30,618,1
569,1,2,31,712,0
569,1,2,32,875,0
569,1,2,33,550,1
569,1,2,34,661,1
569,1,2,35,675,1
569,1,2,36,901,0
569,1,2,37,469,1
569,1,2,38,512,1
569,1,2,39,712,1
569,1,2,40,575,1
565,1,1,1,1075,1
565,1,1,2,875,1
565,1,1,3,723,1
565,1,1,4,848,1
565,1,1,5,698,1
565,1,1,6,733,1
565,1,1,7,586,1
565,1,1,8,1034,1
565,1,1,9,690,1
565,1,1,10,640,1
565,1,1,11,709,1
565,1,1,12,641,1
565,1,1,13,661,1
565,1,1,14,802,1
565,1,1,15,830,1
565,1,1,16,1322,1
565,1,1,17,669,1
565,1,1,18,548,1
565,1,1,19,530,1
565,1,1,20,1047,1
565,1,1,21,676,1
565,1,1,22,786,1
565,1,1,23,710,1
565,1,1,24,719,1
565,1,1,25,900,1
565,1,1,26,785,1
565,1,1,27,848,1
565,1,1,28,945,1
565,1,1,29,739,1
565,1,1,30,1201,1
565,1,1,31,637,1
565,1,1,32,889,1
565,1,1,33,2240,1
565,1,1,34,881,1
565,1,1,35,755,1
565,1,1,36,1426,1
565,1,1,37,776,1
565,1,1,38,680,1
565,1,1,39,731,1
565,1,1,40,715,1
565,1,2,1,766,1
565,1,2,2,882,1
565,1,2,3,807,1
565,1,2,4,575,1
565,1,2,5,673,1
565,1,2,6,1029,0
565,1,2,7,897,1
565,1,2,8,825,1
565,1,2,9,635,1
565,1,2,10,678,1
565,1,2,11,667,1
565,1,2,12,935,1
565,1,2,13,873,1
565,1,2,14,736,1
565,1,2,15,784,1
565,1,2,16,880,1
565,1,2,17,740,1
565,1,2,18,704,1
565,1,2,19,625,1
565,1,2,20,1771,1
565,1,2,21,1112,1
565,1,2,22,620,1
565,1,2,23,1433,1
565,1,2,24,886,1
565,1,2,25,887,1
565,1,2,26,657,1
565,1,2,27,620,1
565,1,2,28,671,1
565,1,2,29,614,1
565,1,2,30,509,1
565,1,2,31,731,1
565,1,2,32,816,1
565,1,2,33,595,1
565,1,2,34,756,1
565,1,2,35,513,1
565,1,2,36,698,1
565,1,2,37,519,1
565,1,2,38,888,1
565,1,2,39,599,1
565,1,2,40,729,1
562,2,1,1,931,1
562,2,1,2,463,1
562,2,1,3,543,1
562,2,1,4,452,1
562,2,1,5,913,0
562,2,1,6,459,1
562,2,1,7,397,1
562,2,1,8,668,0
562,2,1,9,636,1
562,2,1,10,551,1
562,2,1,11,327,1
562,2,1,12,383,1
562,2,1,13,345,1
562,2,1,14,827,0
562,2,1,15,666,0
562,2,1,16,437,1
562,2,1,17,321,1
562,2,1,18,397,1
562,2,1,19,852,0
562,2,1,20,392,1
562,2,1,21,339,1
562,2,1,22,452,1
562,2,1,23,399,1
562,2,1,24,358,1
562,2,1,25,330,1
562,2,1,26,387,1
562,2,1,27,443,1
562,2,1,28,415,0
562,2,1,29,539,1
562,2,1,30,831,0
562,2,1,31,404,1
562,2,1,32,815,0
562,2,1,33,466,1
562,2,1,34,364,1
562,2,1,35,381,1
562,2,1,36,718,0
562,2,1,37,439,1
562,2,1,38,493,1
562,2,1,39,321,1
562,2,1,40,530,1
562,2,2,1,904,1
562,2,2,2,726,1
562,2,2,3,604,1
562,2,2,4,506,1
562,2,2,5,542,1
562,2,2,6,517,1
562,2,2,7,555,1
562,2,2,8,576,1
562,2,2,9,487,1
562,2,2,10,458,1
562,2,2,11,466,1
562,2,2,12,505,1
562,2,2,13,723,1
562,2,2,14,648,1
562,2,2,15,508,1
562,2,2,16,594,1
562,2,2,17,671,1
562,2,2,18,831,1
562,2,2,19,513,1
562,2,2,20,501,1
562,2,2,21,646,1
562,2,2,22,661,1
562,2,2,23,943,0
562,2,2,24,1097,1
562,2,2,25,277,1
562,2,2,26,534,1
562,2,2,27,599,1
562,2,2,28,721,1
562,2,2,29,490,1
562,2,2,30,528,1
562,2,2,31,544,1
562,2,2,32,438,1
562,2,2,33,519,1
562,2,2,34,497,1
562,2,2,35,401,1
562,2,2,36,508,1
562,2,2,37,300,1
562,2,2,38,403,1
562,2,2,39,320,1
562,2,2,40,483,1
558,2,1,1,657,1
558,2,1,2,426,1
558,2,1,3,383,1
558,2,1,4,358,1
558,2,1,5,347,1
558,2,1,6,461,1
558,2,1,7,392,1
558,2,1,8,478,1
558,2,1,9,542,1
558,2,1,10,414,1
558,2,1,11,388,1
558,2,1,12,434,1
558,2,1,13,415,1
558,2,1,14,436,1
558,2,1,15,445,1
558,2,1,16,832,0
558,2,1,17,430,1
558,2,1,18,587,1
558,2,1,19,546,1
558,2,1,20,426,1
558,2,1,21,483,1
558,2,1,22,430,1
558,2,1,23,427,1
558,2,1,24,424,1
558,2,1,25,469,1
558,2,1,26,593,1
558,2,1,27,540,1
558,2,1,28,437,1
558,2,1,29,378,1
558,2,1,30,400,1
558,2,1,31,438,1
558,2,1,32,475,1
558,2,1,33,519,1
558,2,1,34,659,1
558,2,1,35,471,1
558,2,1,36,436,1
558,2,1,37,417,1
558,2,1,38,437,1
558,2,1,39,394,1
558,2,1,40,477,1
558,2,2,1,559,1
558,2,2,2,472,1
558,2,2,3,547,1
558,2,2,4,411,1
558,2,2,5,466,1
558,2,2,6,432,1
558,2,2,7,429,1
558,2,2,8,2595,0
558,2,2,9,503,1
558,2,2,10,405,1
558,2,2,11,1003,0
558,2,2,12,666,1
558,2,2,13,463,1
558,2,2,14,483,1
558,2,2,15,448,1
558,2,2,16,477,1
558,2,2,17,464,1
558,2,2,18,467,1
558,2,2,19,447,1
558,2,2,20,531,1
558,2,2,21,500,1
558,2,2,22,474,1
558,2,2,23,502,1
558,2,2,24,520,1
558,2,2,25,578,1
558,2,2,26,546,1
558,2,2,27,442,1
558,2,2,28,458,1
558,2,2,29,502,1
558,2,2,30,545,1
558,2,2,31,480,1
558,2,2,32,507,1
558,2,2,33,487,1
558,2,2,34,684,1
558,2,2,35,512,1
558,2,2,36,818,1
558,2,2,37,552,1
558,2,2,38,553,1
558,2,2,39,549,1
558,2,2,40,493,1
563,1,1,1,677,1
563,1,1,2,502,1
563,1,1,3,517,1
563,1,1,4,468,1
563,1,1,5,540,1
563,1,1,6,438,1
563,1,1,7,487,1
563,1,1,8,1116,0
563,1,1,9,642,1
563,1,1,10,545,1
563,1,1,11,446,1
563,1,1,12,476,1
563,1,1,13,473,1
563,1,1,14,402,1
563,1,1,15,901,0
563,1,1,16,563,1
563,1,1,17,525,1
563,1,1,18,527,1
563,1,1,19,486,1
563,1,1,20,538,1
563,1,1,21,476,1
563,1,1,22,441,1
563,1,1,23,395,1
563,1,1,24,607,1
563,1,1,25,606,1
563,1,1,26,949,0
563,1,1,27,622,1
563,1,1,28,493,1
563,1,1,29,377,1
563,1,1,30,465,1
563,1,1,31,343,1
563,1,1,32,492,1
563,1,1,33,584,1
563,1,1,34,435,1
563,1,1,35,502,1
563,1,1,36,561,1
563,1,1,37,478,1
563,1,1,38,499,1
563,1,1,39,531,1
563,1,1,40,505,1
563,1,2,1,862,1
563,1,2,2,764,1
563,1,2,3,869,1
563,1,2,4,606,1
563,1,2,5,537,1
563,1,2,6,659,1
563,1,2,7,641,1
563,1,2,8,799,1
563,1,2,9,558,1
563,1,2,10,680,1
563,1,2,11,636,1
563,1,2,12,1307,0
563,1,2,13,761,1
563,1,2,14,730,1
563,1,2,15,641,1
563,1,2,16,583,1
563,1,2,17,539,1
563,1,2,18,517,1
563,1,2,19,676,1
563,1,2,20,455,1
563,1,2,21,777,1
563,1,2,22,393,1
563,1,2,23,481,1
563,1,2,24,706,1
563,1,2,25,578,1
563,1,2,26,1066,0
563,1,2,27,758,1
563,1,2,28,459,1
563,1,2,29,897,0
563,1,2,30,568,1
563,1,2,31,573,1
563,1,2,32,834,1
563,1,2,33,532,1
563,1,2,34,546,1
563,1,2,35,932,0
563,1,2,36,778,1
563,1,2,37,907,1
563,1,2,38,710,1
563,1,2,39,629,1
563,1,2,40,615,1
559,1,1,1,472,1
559,1,1,2,585,1
559,1,1,3,901,0
559,1,1,4,492,1
559,1,1,5,436,1
559,1,1,6,414,1
559,1,1,7,433,1
559,1,1,8,444,1
559,1,1,9,879,0
559,1,1,10,471,1
559,1,1,11,456,1
559,1,1,12,489,1
559,1,1,13,441,1
559,1,1,14,502,1
559,1,1,15,875,0
559,1,1,16,555,1
559,1,1,17,617,1
559,1,1,18,460,1
559,1,1,19,414,1
559,1,1,20,449,1
559,1,1,21,451,1
559,1,1,22,468,1
559,1,1,23,405,1
559,1,1,24,545,1
559,1,1,25,879,0
559,1,1,26,399,1
559,1,1,27,387,1
559,1,1,28,703,0
559,1,1,29,462,1
559,1,1,30,495,1
559,1,1,31,920,0
559,1,1,32,462,1
559,1,1,33,488,1
559,1,1,34,472,1
559,1,1,35,425,1
559,1,1,36,659,1
559,1,1,37,397,1
559,1,1,38,401,1
559,1,1,39,717,0
559,1,1,40,315,1
559,1,2,1,585,1
559,1,2,2,629,1
559,1,2,3,464,1
559,1,2,4,665,1
559,1,2,5,914,0
559,1,2,6,401,1
559,1,2,7,413,1
559,1,2,8,664,1
559,1,2,9,530,1
559,1,2,10,457,1
559,1,2,11,634,1
559,1,2,12,596,1
559,1,2,13,521,1
559,1,2,14,456,1
559,1,2,15,633,0
559,1,2,16,539,1
559,1,2,17,785,0
559,1,2,18,485,1
559,1,2,19,725,0
559,1,2,20,971,0
559,1,2,21,847,0
559,1,2,22,705,1
559,1,2,23,433,1
559,1,2,24,531,1
559,1,2,25,473,1
559,1,2,26,514,1
559,1,2,27,425,1
559,1,2,28,708,1
559,1,2,29,444,1
559,1,2,30,630,1
559,1,2,31,720,1
559,1,2,32,1152,0
559,1,2,33,461,1
559,1,2,34,646,1
559,1,2,35,1112,0
559,1,2,36,664,1
559,1,2,37,481,1
559,1,2,38,698,0
559,1,2,39,721,0
559,1,2,40,152,0
554,2,1,1,736,1
554,2,1,2,637,1
554,2,1,3,574,1
554,2,1,4,539,1
554,2,1,5,664,1
554,2,1,6,584,1
554,2,1,7,516,1
554,2,1,8,522,1
554,2,1,9,552,1
554,2,1,10,749,1
554,2,1,11,562,1
554,2,1,12,750,1
554,2,1,13,443,1
554,2,1,14,564,1
554,2,1,15,697,1
554,2,1,16,576,1
554,2,1,17,636,1
554,2,1,18,1365,1
554,2,1,19,673,1
554,2,1,20,1049,1
554,2,1,21,770,1
554,2,1,22,742,1
554,2,1,23,747,1
554,2,1,24,728,1
554,2,1,25,870,1
554,2,1,26,733,1
554,2,1,27,531,1
554,2,1,28,665,1
554,2,1,29,593,1
554,2,1,30,724,1
554,2,1,31,674,1
554,2,1,32,650,1
554,2,1,33,539,1
554,2,1,34,464,1
554,2,1,35,608,1
554,2,1,36,739,1
554,2,1,37,544,1
554,2,1,38,638,1
554,2,1,39,575,1
554,2,1,40,619,1
554,2,2,1,871,1
554,2,2,2,751,1
554,2,2,3,683,1
554,2,2,4,674,1
554,2,2,5,794,1
554,2,2,6,1589,1
554,2,2,7,1000,1
554,2,2,8,691,1
554,2,2,9,714,1
554,2,2,10,1032,1
554,2,2,11,834,1
554,2,2,12,803,1
554,2,2,13,1069,1
554,2,2,14,893,1
554,2,2,15,715,1
554,2,2,16,1290,1
554,2,2,17,673,1
554,2,2,18,841,1
554,2,2,19,1306,1
554,2,2,20,688,1
554,2,2,21,647,1
554,2,2,22,768,1
554,2,2,23,820,1
554,2,2,24,702,1
554,2,2,25,828,1
554,2,2,26,582,1
554,2,2,27,618,1
554,2,2,28,812,1
554,2,2,29,486,1
554,2,2,30,605,1
554,2,2,31,792,1
554,2,2,32,659,1
554,2,2,33,828,1
554,2,2,34,629,1
554,2,2,35,623,1
554,2,2,36,793,1
554,2,2,37,580,1
554,2,2,38,696,1
554,2,2,39,535,1
554,2,2,40,572,1
556,2,1,1,1147,1
556,2,1,2,583,1
556,2,1,3,545,1
556,2,1,4,494,1
556,2,1,5,493,1
556,2,1,6,388,1
556,2,1,7,399,1
556,2,1,8,402,1
556,2,1,9,452,1
556,2,1,10,396,1
556,2,1,11,423,1
556,2,1,12,409,1
556,2,1,13,571,1
556,2,1,14,439,1
556,2,1,15,416,1
556,2,1,16,609,1
556,2,1,17,475,1
556,2,1,18,499,1
556,2,1,19,441,1
556,2,1,20,418,1
556,2,1,21,484,1
556,2,1,22,435,1
556,2,1,23,420,1
556,2,1,24,357,1
556,2,1,25,418,1
556,2,1,26,387,1
556,2,1,27,398,1
556,2,1,28,505,1
556,2,1,29,447,1
556,2,1,30,481,1
556,2,1,31,424,1
556,2,1,32,441,1
556,2,1,33,426,1
556,2,1,34,492,1
556,2,1,35,379,1
556,2,1,36,463,1
556,2,1,37,623,1
556,2,1,38,424,1
556,2,1,39,370,1
556,2,1,40,430,1
556,2,2,1,2560,1
556,2,2,2,721,1
556,2,2,3,527,1
556,2,2,4,812,1
556,2,2,5,566,1
556,2,2,6,833,1
556,2,2,7,538,1
556,2,2,8,678,1
556,2,2,9,550,1
556,2,2,10,866,1
556,2,2,11,489,1
556,2,2,12,552,1
556,2,2,13,524,1
556,2,2,14,1074,0
556,2,2,15,888,1
556,2,2,16,654,1
556,2,2,17,798,1
556,2,2,18,545,1
556,2,2,19,613,1
556,2,2,20,487,1
556,2,2,21,494,1
556,2,2,22,565,1
556,2,2,23,897,1
556,2,2,24,840,0
556,2,2,25,623,1
556,2,2,26,569,1
556,2,2,27,540,1
556,2,2,28,705,1
556,2,2,29,791,1
556,2,2,30,897,0
556,2,2,31,775,1
556,2,2,32,954,0
556,2,2,33,957,1
556,2,2,34,723,1
556,2,2,35,670,1
556,2,2,36,757,1
556,2,2,37,609,1
556,2,2,38,1043,0
556,2,2,39,650,1
556,2,2,40,642,1
555,1,1,1,1963,1
555,1,1,2,828,1
555,1,1,3,599,1
555,1,1,4,2255,1
555,1,1,5,508,1
555,1,1,6,592,1
555,1,1,7,502,1
555,1,1,8,817,1
555,1,1,9,1036,1
555,1,1,10,770,1
555,1,1,11,610,1
555,1,1,12,675,1
555,1,1,13,808,1
555,1,1,14,641,1
555,1,1,15,663,1
555,1,1,16,697,1
555,1,1,17,485,1
555,1,1,18,621,1
555,1,1,19,728,1
555,1,1,20,497,1
555,1,1,21,603,1
555,1,1,22,484,1
555,1,1,23,540,1
555,1,1,24,415,1
555,1,1,25,479,1
555,1,1,26,453,1
555,1,1,27,469,1
555,1,1,28,624,1
555,1,1,29,510,1
555,1,1,30,539,1
555,1,1,31,454,1
555,1,1,32,663,1
555,1,1,33,578,1
555,1,1,34,685,1
555,1,1,35,845,1
555,1,1,36,862,1
555,1,1,37,705,1
555,1,1,38,1180,1
555,1,1,39,671,1
555,1,1,40,1389,1
555,1,2,1,838,1
555,1,2,2,1484,1
555,1,2,3,1237,1
555,1,2,4,771,1
555,1,2,5,553,1
555,1,2,6,806,1
555,1,2,7,830,1
555,1,2,8,772,1
555,1,2,9,565,1
555,1,2,10,1437,1
555,1,2,11,619,1
555,1,2,12,910,1
555,1,2,13,644,1
555,1,2,14,738,1
555,1,2,15,575,1
555,1,2,16,802,1
555,1,2,17,957,0
555,1,2,18,739,1
555,1,2,19,878,1
555,1,2,20,828,1
555,1,2,21,736,1
555,1,2,22,728,1
555,1,2,23,712,1
555,1,2,24,854,1
555,1,2,25,662,1
555,1,2,26,753,1
555,1,2,27,655,1
555,1,2,28,1039,0
555,1,2,29,592,1
555,1,2,30,685,1
555,1,2,31,870,1
555,1,2,32,1353,1
555,1,2,33,671,1
555,1,2,34,2181,1
555,1,2,35,2648,1
555,1,2,36,1177,1
555,1,2,37,845,0
555,1,2,38,904,1
555,1,2,39,587,1
555,1,2,40,745,1
552,2,1,1,916,1
552,2,1,2,943,1
552,2,1,3,896,1
552,2,1,4,666,1
552,2,1,5,588,1
552,2,1,6,731,1
552,2,1,7,515,1
552,2,1,8,695,1
552,2,1,9,858,1
552,2,1,10,710,1
552,2,1,11,554,1
552,2,1,12,486,1
552,2,1,13,541,1
552,2,1,14,542,1
552,2,1,15,532,1
552,2,1,16,499,1
552,2,1,17,714,1
552,2,1,18,608,1
552,2,1,19,675,1
552,2,1,20,469,1
552,2,1,21,589,1
552,2,1,22,641,1
552,2,1,23,601,1
552,2,1,24,520,1
552,2,1,25,501,1
552,2,1,26,494,1
552,2,1,27,405,1
552,2,1,28,444,1
552,2,1,29,396,1
552,2,1,30,539,1
552,2,1,31,474,1
552,2,1,32,335,1
552,2,1,33,874,0
552,2,1,34,677,1
552,2,1,35,552,1
552,2,1,36,650,1
552,2,1,37,533,1
552,2,1,38,498,1
552,2,1,39,442,1
552,2,1,40,610,1
552,2,2,1,682,1
552,2,2,2,908,1
552,2,2,3,516,1
552,2,2,4,857,1
552,2,2,5,571,1
552,2,2,6,494,1
552,2,2,7,444,1
552,2,2,8,438,1
552,2,2,9,490,1
552,2,2,10,1067,0
552,2,2,11,711,1
552,2,2,12,500,1
552,2,2,13,676,1
552,2,2,14,508,1
552,2,2,15,661,1
552,2,2,16,526,1
552,2,2,17,1110,0
552,2,2,18,630,1
552,2,2,19,549,1
552,2,2,20,741,1
552,2,2,21,560,1
552,2,2,22,458,1
552,2,2,23,764,1
552,2,2,24,1274,1
552,2,2,25,663,1
552,2,2,26,863,0
552,2,2,27,559,1
552,2,2,28,558,1
552,2,2,29,694,1
552,2,2,30,690,1
552,2,2,31,657,1
552,2,2,32,493,1
552,2,2,33,570,1
552,2,2,34,503,1
552,2,2,35,635,1
552,2,2,36,707,1
552,2,2,37,628,1
552,2,2,38,702,1
552,2,2,39,559,1
552,2,2,40,652,1
546,2,1,1,696,1
546,2,1,2,701,1
546,2,1,3,754,1
546,2,1,4,679,1
546,2,1,5,604,1
546,2,1,6,546,1
546,2,1,7,792,1
546,2,1,8,1625,1
546,2,1,9,681,1
546,2,1,10,789,1
546,2,1,11,778,1
546,2,1,12,1069,1
546,2,1,13,625,1
546,2,1,14,619,1
546,2,1,15,608,1
546,2,1,16,663,1
546,2,1,17,576,1
546,2,1,18,724,1
546,2,1,19,696,1
546,2,1,20,613,1
546,2,1,21,477,1
546,2,1,22,466,1
546,2,1,23,725,1
546,2,1,24,681,1
546,2,1,25,417,1
546,2,1,26,644,1
546,2,1,27,420,1
546,2,1,28,589,1
546,2,1,29,429,1
546,2,1,30,653,1
546,2,1,31,652,1
546,2,1,32,710,1
546,2,1,33,636,1
546,2,1,34,715,1
546,2,1,35,674,1
546,2,1,36,639,1
546,2,1,37,450,1
546,2,1,38,610,1
546,2,1,39,571,1
546,2,1,40,580,1
546,2,2,1,665,1
546,2,2,2,557,1
546,2,2,3,789,1
546,2,2,4,1143,1
546,2,2,5,681,1
546,2,2,6,878,1
546,2,2,7,1024,1
546,2,2,8,803,1
546,2,2,9,964,1
546,2,2,10,753,1
546,2,2,11,841,1
546,2,2,12,620,1
546,2,2,13,612,1
546,2,2,14,617,1
546,2,2,15,817,1
546,2,2,16,1435,1
546,2,2,17,705,1
546,2,2,18,734,1
546,2,2,19,843,1
546,2,2,20,617,1
546,2,2,21,531,1
546,2,2,22,705,1
546,2,2,23,828,1
546,2,2,24,544,1
546,2,2,25,876,1
546,2,2,26,632,1
546,2,2,27,596,1
546,2,2,28,759,1
546,2,2,29,833,1
546,2,2,30,720,1
546,2,2,31,1484,1
546,2,2,32,1277,1
546,2,2,33,977,1
546,2,2,34,1385,1
546,2,2,35,717,1
546,2,2,36,834,1
546,2,2,37,737,1
546,2,2,38,602,1
546,2,2,39,598,1
546,2,2,40,498,1
544,2,1,1,425,1
544,2,1,2,454,1
544,2,1,3,426,1
544,2,1,4,485,1
544,2,1,5,466,1
544,2,1,6,705,1
544,2,1,7,416,1
544,2,1,8,496,1
544,2,1,9,477,1
544,2,1,10,455,1
544,2,1,11,377,1
544,2,1,12,466,1
544,2,1,13,496,1
544,2,1,14,675,1
544,2,1,15,426,1
544,2,1,16,436,1
544,2,1,17,396,1
544,2,1,18,387,1
544,2,1,19,465,1
544,2,1,20,367,1
544,2,1,21,805,0
544,2,1,22,855,0
544,2,1,23,550,1
544,2,1,24,366,1
544,2,1,25,437,1
544,2,1,26,426,1
544,2,1,27,426,1
544,2,1,28,615,1
544,2,1,29,496,1
544,2,1,30,506,1
544,2,1,31,486,1
544,2,1,32,796,1
544,2,1,33,426,1
544,2,1,34,496,1
544,2,1,35,606,1
544,2,1,36,496,1
544,2,1,37,486,1
544,2,1,38,447,1
544,2,1,39,485,1
544,2,1,40,426,1
544,2,2,1,467,1
544,2,2,2,376,1
544,2,2,3,465,1
544,2,2,4,436,1
544,2,2,5,356,1
544,2,2,6,356,1
544,2,2,7,505,1
544,2,2,8,536,1
544,2,2,9,717,1
544,2,2,10,756,1
544,2,2,11,575,1
544,2,2,12,546,1
544,2,2,13,585,1
544,2,2,14,416,1
544,2,2,15,416,1
544,2,2,16,576,1
544,2,2,17,477,1
544,2,2,18,426,1
544,2,2,19,346,1
544,2,2,20,436,1
544,2,2,21,426,1
544,2,2,22,585,1
544,2,2,23,568,1
544,2,2,24,406,1
544,2,2,25,506,1
544,2,2,26,496,1
544,2,2,27,477,1
544,2,2,28,465,1
544,2,2,29,386,1
544,2,2,30,457,1
544,2,2,31,705,0
544,2,2,32,634,1
544,2,2,33,506,1
544,2,2,34,506,1
544,2,2,35,406,1
544,2,2,36,475,1
544,2,2,37,396,1
544,2,2,38,496,1
544,2,2,39,516,1
544,2,2,40,617,1
548,2,1,1,540,1
548,2,1,2,529,1
548,2,1,3,481,1
548,2,1,4,443,1
548,2,1,5,440,1
548,2,1,6,381,1
548,2,1,7,633,1
548,2,1,8,451,1
548,2,1,9,489,1
548,2,1,10,418,1
548,2,1,11,619,1
548,2,1,12,526,1
548,2,1,13,443,1
548,2,1,14,434,1
548,2,1,15,382,1
548,2,1,16,545,1
548,2,1,17,508,1
548,2,1,18,573,1
548,2,1,19,570,1
548,2,1,20,499,1
548,2,1,21,435,1
548,2,1,22,445,1
548,2,1,23,407,1
548,2,1,24,488,1
548,2,1,25,474,1
548,2,1,26,503,1
548,2,1,27,526,1
548,2,1,28,480,1
548,2,1,29,486,1
548,2,1,30,488,1
548,2,1,31,484,1
548,2,1,32,548,1
548,2,1,33,423,1
548,2,1,34,436,1
548,2,1,35,476,1
548,2,1,36,415,1
548,2,1,37,511,1
548,2,1,38,402,1
548,2,1,39,435,1
548,2,1,40,506,1
548,2,2,1,678,1
548,2,2,2,732,1
548,2,2,3,553,1
548,2,2,4,428,1
548,2,2,5,595,1
548,2,2,6,499,1
548,2,2,7,465,1
548,2,2,8,774,1
548,2,2,9,834,1
548,2,2,10,464,1
548,2,2,11,360,1
548,2,2,12,511,1
548,2,2,13,500,1
548,2,2,14,525,1
548,2,2,15,448,1
548,2,2,16,449,1
548,2,2,17,457,1
548,2,2,18,561,1
548,2,2,19,514,1
548,2,2,20,975,0
548,2,2,21,559,1
548,2,2,22,495,1
548,2,2,23,589,1
548,2,2,24,700,1
548,2,2,25,514,1
548,2,2,26,393,1
548,2,2,27,411,1
548,2,2,28,900,1
548,2,2,29,687,1
548,2,2,30,648,1
548,2,2,31,683,0
548,2,2,32,507,1
548,2,2,33,403,1
548,2,2,34,361,1
548,2,2,35,718,1
548,2,2,36,561,1
548,2,2,37,457,1
548,2,2,38,468,1
548,2,2,39,490,1
548,2,2,40,619,1
536,2,1,1,5190,1
536,2,1,2,1055,1
536,2,1,3,539,1
536,2,1,4,1692,1
536,2,1,5,1342,0
536,2,1,6,930,1
536,2,1,7,584,1
536,2,1,8,1546,1
536,2,1,9,1591,1
536,2,1,10,1024,1
536,2,1,11,639,1
536,2,1,12,738,1
536,2,1,13,1054,1
536,2,1,14,828,1
536,2,1,15,621,1
536,2,1,16,756,1
536,2,1,17,617,1
536,2,1,18,1500,0
536,2,1,19,1323,1
536,2,1,20,959,1
536,2,1,21,726,1
536,2,1,22,607,1
536,2,1,23,611,1
536,2,1,24,1269,0
536,2,1,25,1294,1
536,2,1,26,1163,0
536,2,1,27,604,1
536,2,1,28,1014,1
536,2,1,29,751,1
536,2,1,30,873,1
536,2,1,31,458,1
536,2,1,32,1156,1
536,2,1,33,794,1
536,2,1,34,723,1
536,2,1,35,745,1
536,2,1,36,903,1
536,2,1,37,674,1
536,2,1,38,542,1
536,2,1,39,820,1
536,2,1,40,628,1
536,2,2,1,930,1
536,2,2,2,1294,1
536,2,2,3,896,1
536,2,2,4,769,1
536,2,2,5,992,1
536,2,2,6,802,1
536,2,2,7,781,1
536,2,2,8,910,1
536,2,2,9,1248,1
536,2,2,10,773,1
536,2,2,11,702,1
536,2,2,12,1134,1
536,2,2,13,976,1
536,2,2,14,777,1
536,2,2,15,658,1
536,2,2,16,676,1
536,2,2,17,1139,1
536,2,2,18,1372,0
536,2,2,19,784,1
536,2,2,20,672,1
536,2,2,21,812,1
536,2,2,22,2319,1
536,2,2,23,813,1
536,2,2,24,719,1
536,2,2,25,881,1
536,2,2,26,872,1
536,2,2,27,671,1
536,2,2,28,990,1
536,2,2,29,1209,1
536,2,2,30,1318,1
536,2,2,31,586,1
536,2,2,32,2291,1
536,2,2,33,750,1
536,2,2,34,766,1
536,2,2,35,1051,1
536,2,2,36,998,1
536,2,2,37,1258,0
536,2,2,38,1166,0
536,2,2,39,758,1
536,2,2,40,1384,0
538,2,1,1,1312,1
538,2,1,2,732,1
538,2,1,3,465,1
538,2,1,4,616,1
538,2,1,5,489,1
538,2,1,6,487,1
538,2,1,7,421,1
538,2,1,8,446,1
538,2,1,9,407,1
538,2,1,10,384,1
538,2,1,11,451,1
538,2,1,12,354,1
538,2,1,13,438,1
538,2,1,14,551,1
538,2,1,15,434,1
538,2,1,16,427,1
538,2,1,17,676,1
538,2,1,18,698,1
538,2,1,19,536,1
538,2,1,20,372,1
538,2,1,21,415,1
538,2,1,22,368,1
538,2,1,23,597,1
538,2,1,24,374,1
538,2,1,25,481,1
538,2,1,26,536,1
538,2,1,27,524,1
538,2,1,28,425,1
538,2,1,29,578,1
538,2,1,30,485,1
538,2,1,31,435,1
538,2,1,32,468,1
538,2,1,33,442,1
538,2,1,34,443,1
538,2,1,35,435,1
538,2,1,36,612,1
538,2,1,37,621,1
538,2,1,38,581,1
538,2,1,39,441,1
538,2,1,40,553,1
538,2,2,1,1096,1
538,2,2,2,716,1
538,2,2,3,769,1
538,2,2,4,668,1
538,2,2,5,730,1
538,2,2,6,766,1
538,2,2,7,680,1
538,2,2,8,559,1
538,2,2,9,562,1
538,2,2,10,654,1
538,2,2,11,501,1
538,2,2,12,674,1
538,2,2,13,689,1
538,2,2,14,856,1
538,2,2,15,686,1
538,2,2,16,964,1
538,2,2,17,662,1
538,2,2,18,526,1
538,2,2,19,427,1
538,2,2,20,476,1
538,2,2,21,387,1
538,2,2,22,453,1
538,2,2,23,357,1
538,2,2,24,609,1
538,2,2,25,370,1
538,2,2,26,421,1
538,2,2,27,686,1
538,2,2,28,1116,0
538,2,2,29,552,1
538,2,2,30,891,1
538,2,2,31,401,1
538,2,2,32,522,1
538,2,2,33,399,1
538,2,2,34,697,1
538,2,2,35,639,1
538,2,2,36,688,1
538,2,2,37,557,1
538,2,2,38,760,1
538,2,2,39,491,1
538,2,2,40,522,1
526,2,1,1,2356,1
526,2,1,2,1053,1
526,2,1,3,763,1
526,2,1,4,863,1
526,2,1,5,774,1
526,2,1,6,715,1
526,2,1,7,893,1
526,2,1,8,872,1
526,2,1,9,683,1
526,2,1,10,557,1
526,2,1,11,709,1
526,2,1,12,694,1
526,2,1,13,801,1
526,2,1,14,672,1
526,2,1,15,744,1
526,2,1,16,603,1
526,2,1,17,688,1
526,2,1,18,832,1
526,2,1,19,662,1
526,2,1,20,643,1
526,2,1,21,628,1
526,2,1,22,583,1
526,2,1,23,633,1
526,2,1,24,597,1
526,2,1,25,607,1
526,2,1,26,663,1
526,2,1,27,762,1
526,2,1,28,623,1
526,2,1,29,682,1
526,2,1,30,655,1
526,2,1,31,501,1
526,2,1,32,792,1
526,2,1,33,667,1
526,2,1,34,1012,1
526,2,1,35,668,1
526,2,1,36,723,1
526,2,1,37,641,1
526,2,1,38,724,1
526,2,1,39,652,1
526,2,1,40,740,1
526,2,2,1,787,1
526,2,2,2,861,1
526,2,2,3,703,1
526,2,2,4,927,1
526,2,2,5,767,1
526,2,2,6,754,1
526,2,2,7,692,1
526,2,2,8,653,1
526,2,2,9,673,1
526,2,2,10,923,1
526,2,2,11,710,1
526,2,2,12,803,1
526,2,2,13,654,1
526,2,2,14,663,1
526,2,2,15,826,1
526,2,2,16,733,1
526,2,2,17,652,1
526,2,2,18,582,1
526,2,2,19,618,1
526,2,2,20,628,1
526,2,2,21,733,1
526,2,2,22,957,1
526,2,2,23,754,1
526,2,2,24,712,1
526,2,2,25,703,1
526,2,2,26,624,1
526,2,2,27,654,1
526,2,2,28,553,1
526,2,2,29,702,1
526,2,2,30,574,1
526,2,2,31,682,1
526,2,2,32,674,1
526,2,2,33,642,1
526,2,2,34,622,1
526,2,2,35,933,1
526,2,2,36,566,1
526,2,2,37,637,1
526,2,2,38,644,1
526,2,2,39,672,1
526,2,2,40,615,1
502,2,1,1,826,1
502,2,1,2,451,1
502,2,1,3,541,1
502,2,1,4,474,1
502,2,1,5,599,1
502,2,1,6,495,1
502,2,1,7,435,1
502,2,1,8,481,1
502,2,1,9,1355,1
502,2,1,10,561,1
502,2,1,11,625,1
502,2,1,12,524,1
502,2,1,13,448,1
502,2,1,14,431,1
502,2,1,15,374,1
502,2,1,16,390,1
502,2,1,17,413,1
502,2,1,18,413,1
502,2,1,19,476,1
502,2,1,20,366,1
502,2,1,21,547,1
502,2,1,22,889,0
502,2,1,23,570,1
502,2,1,24,575,1
502,2,1,25,411,1
502,2,1,26,494,1
502,2,1,27,334,1
502,2,1,28,409,1
502,2,1,29,524,1
502,2,1,30,1149,0
502,2,1,31,352,1
502,2,1,32,328,1
502,2,1,33,441,1
502,2,1,34,453,1
502,2,1,35,363,1
502,2,1,36,414,1
502,2,1,37,445,1
502,2,1,38,389,1
502,2,1,39,522,1
502,2,1,40,451,1
502,2,2,1,985,1
502,2,2,2,468,1
502,2,2,3,616,1
502,2,2,4,466,1
502,2,2,5,717,1
502,2,2,6,601,1
502,2,2,7,465,1
502,2,2,8,645,1
502,2,2,9,495,1
502,2,2,10,462,1
502,2,2,11,536,1
502,2,2,12,456,1
502,2,2,13,493,1
502,2,2,14,467,1
502,2,2,15,1023,0
502,2,2,16,486,1
502,2,2,17,606,1
502,2,2,18,505,1
502,2,2,19,763,1
502,2,2,20,585,1
502,2,2,21,680,1
502,2,2,22,531,1
502,2,2,23,599,1
502,2,2,24,445,1
502,2,2,25,559,1
502,2,2,26,599,1
502,2,2,27,608,1
502,2,2,28,1148,0
502,2,2,29,579,1
502,2,2,30,528,1
502,2,2,31,453,1
502,2,2,32,678,1
502,2,2,33,723,1
502,2,2,34,450,1
502,2,2,35,965,0
502,2,2,36,460,1
502,2,2,37,427,1
502,2,2,38,594,1
502,2,2,39,509,1
502,2,2,40,573,1
514,2,1,1,1009,1
514,2,1,2,594,1
514,2,1,3,585,1
514,2,1,4,516,1
514,2,1,5,521,1
514,2,1,6,902,1
514,2,1,7,507,1
514,2,1,8,509,1
514,2,1,9,644,1
514,2,1,10,537,1
514,2,1,11,2394,1
514,2,1,12,966,1
514,2,1,13,765,1
514,2,1,14,815,1
514,2,1,15,916,1
514,2,1,16,1196,1
514,2,1,17,842,1
514,2,1,18,622,1
514,2,1,19,588,1
514,2,1,20,652,1
514,2,1,21,1005,1
514,2,1,22,1121,1
514,2,1,23,585,1
514,2,1,24,721,1
514,2,1,25,769,1
514,2,1,26,639,1
514,2,1,27,731,1
514,2,1,28,706,1
514,2,1,29,880,1
514,2,1,30,774,1
514,2,1,31,616,1
514,2,1,32,738,1
514,2,1,33,630,1
514,2,1,34,564,1
514,2,1,35,1061,1
514,2,1,36,713,1
514,2,1,37,731,1
514,2,1,38,1431,0
514,2,1,39,1434,1
514,2,1,40,1289,1
514,2,2,1,1786,1
514,2,2,2,2430,1
514,2,2,3,1304,1
514,2,2,4,870,1
514,2,2,5,1030,1
514,2,2,6,1247,1
514,2,2,7,944,1
514,2,2,8,1969,1
514,2,2,9,1007,1
514,2,2,10,993,1
514,2,2,11,1305,1
514,2,2,12,778,1
514,2,2,13,703,1
514,2,2,14,1049,1
514,2,2,15,905,1
514,2,2,16,1421,1
514,2,2,17,845,1
514,2,2,18,1278,1
514,2,2,19,860,1
514,2,2,20,499,1
514,2,2,21,771,1
514,2,2,22,489,1
514,2,2,23,741,1
514,2,2,24,629,1
514,2,2,25,613,1
514,2,2,26,592,1
514,2,2,27,535,1
514,2,2,28,791,1
514,2,2,29,805,1
514,2,2,30,1525,1
514,2,2,31,745,1
514,2,2,32,801,1
514,2,2,33,889,1
514,2,2,34,1186,1
514,2,2,35,1062,1
514,2,2,36,805,1
514,2,2,37,722,1
514,2,2,38,659,1
514,2,2,39,700,1
514,2,2,40,513,1
472,2,1,1,669,1
472,2,1,2,352,1
472,2,1,3,482,1
472,2,1,4,499,1
472,2,1,5,437,1
472,2,1,6,405,1
472,2,1,7,420,1
472,2,1,8,481,1
472,2,1,9,394,1
472,2,1,10,423,1
472,2,1,11,472,1
472,2,1,12,423,1
472,2,1,13,335,1
472,2,1,14,412,1
472,2,1,15,413,1
472,2,1,16,433,1
472,2,1,17,435,1
472,2,1,18,484,1
472,2,1,19,391,1
472,2,1,20,401,1
472,2,1,21,558,1
472,2,1,22,531,1
472,2,1,23,407,1
472,2,1,24,476,1
472,2,1,25,405,1
472,2,1,26,425,1
472,2,1,27,437,1
472,2,1,28,414,1
472,2,1,29,388,1
472,2,1,30,495,1
472,2,1,31,402,1
472,2,1,32,419,1
472,2,1,33,434,1
472,2,1,34,455,1
472,2,1,35,563,1
472,2,1,36,533,1
472,2,1,37,397,1
472,2,1,38,439,1
472,2,1,39,394,1
472,2,1,40,393,1
472,2,2,1,737,1
472,2,2,2,692,1
472,2,2,3,538,1
472,2,2,4,512,1
472,2,2,5,511,1
472,2,2,6,510,1
472,2,2,7,458,1
472,2,2,8,513,1
472,2,2,9,579,1
472,2,2,10,755,1
472,2,2,11,952,1
472,2,2,12,542,1
472,2,2,13,608,1
472,2,2,14,850,1
472,2,2,15,465,1
472,2,2,16,663,1
472,2,2,17,775,1
472,2,2,18,786,1
472,2,2,19,1125,0
472,2,2,20,737,1
472,2,2,21,421,1
472,2,2,22,691,0
472,2,2,23,710,1
472,2,2,24,556,1
472,2,2,25,438,1
472,2,2,26,653,1
472,2,2,27,487,1
472,2,2,28,554,1
472,2,2,29,550,1
472,2,2,30,656,1
472,2,2,31,583,1
472,2,2,32,680,1
472,2,2,33,693,1
472,2,2,34,764,1
472,2,2,35,713,1
472,2,2,36,1063,1
472,2,2,37,828,1
472,2,2,38,863,1
472,2,2,39,572,1
472,2,2,40,687,1
513,1,1,1,888,1
513,1,1,2,659,1
513,1,1,3,454,1
513,1,1,4,500,1
513,1,1,5,678,1
513,1,1,6,437,1
513,1,1,7,841,0
513,1,1,8,489,1
513,1,1,9,431,1
513,1,1,10,390,1
513,1,1,11,476,1
513,1,1,12,485,1
513,1,1,13,557,1
513,1,1,14,503,1
513,1,1,15,480,1
513,1,1,16,550,1
513,1,1,17,487,1
513,1,1,18,549,1
513,1,1,19,646,1
513,1,1,20,669,1
513,1,1,21,568,1
513,1,1,22,499,1
513,1,1,23,485,1
513,1,1,24,487,1
513,1,1,25,430,1
513,1,1,26,500,1
513,1,1,27,364,1
513,1,1,28,421,1
513,1,1,29,392,1
513,1,1,30,454,1
513,1,1,31,440,1
513,1,1,32,376,1
513,1,1,33,375,1
513,1,1,34,927,0
513,1,1,35,485,1
513,1,1,36,538,1
513,1,1,37,621,1
513,1,1,38,541,1
513,1,1,39,595,1
513,1,1,40,941,1
513,1,2,1,526,1
513,1,2,2,1792,1
513,1,2,3,504,1
513,1,2,4,592,1
513,1,2,5,665,1
513,1,2,6,873,1
513,1,2,7,713,1
513,1,2,8,640,1
513,1,2,9,966,1
513,1,2,10,674,1
513,1,2,11,926,1
513,1,2,12,627,1
513,1,2,13,537,1
513,1,2,14,684,1
513,1,2,15,586,1
513,1,2,16,680,1
513,1,2,17,500,1
513,1,2,18,1002,0
513,1,2,19,667,1
513,1,2,20,656,1
513,1,2,21,484,1
513,1,2,22,467,1
513,1,2,23,782,1
513,1,2,24,695,1
513,1,2,25,448,1
513,1,2,26,443,1
513,1,2,27,436,1
513,1,2,28,550,1
513,1,2,29,728,1
513,1,2,30,501,1
513,1,2,31,376,1
513,1,2,32,627,1
513,1,2,33,568,1
513,1,2,34,861,0
513,1,2,35,578,1
513,1,2,36,608,1
513,1,2,37,626,1
513,1,2,38,647,1
513,1,2,39,602,1
513,1,2,40,780,1
549,1,1,1,1734,1
549,1,1,2,980,1
549,1,1,3,777,1
549,1,1,4,1577,1
549,1,1,5,845,1
549,1,1,6,634,1
549,1,1,7,3511,0
549,1,1,8,750,1
549,1,1,9,668,1
549,1,1,10,625,1
549,1,1,11,636,1
549,1,1,12,660,1
549,1,1,13,942,1
549,1,1,14,940,1
549,1,1,15,838,1
549,1,1,16,812,1
549,1,1,17,675,1
549,1,1,18,1040,1
549,1,1,19,487,1
549,1,1,20,680,1
549,1,1,21,545,1
549,1,1,22,618,1
549,1,1,23,505,1
549,1,1,24,439,1
549,1,1,25,618,1
549,1,1,26,669,1
549,1,1,27,586,1
549,1,1,28,547,1
549,1,1,29,584,1
549,1,1,30,545,1
549,1,1,31,1105,1
549,1,1,32,595,1
549,1,1,33,506,1
549,1,1,34,570,1
549,1,1,35,808,1
549,1,1,36,568,1
549,1,1,37,466,1
549,1,1,38,468,1
549,1,1,39,477,1
549,1,1,40,489,1
549,1,2,1,871,1
549,1,2,2,1488,1
549,1,2,3,1106,1
549,1,2,4,935,1
549,1,2,5,867,1
549,1,2,6,764,1
549,1,2,7,646,1
549,1,2,8,1018,1
549,1,2,9,939,1
549,1,2,10,1278,1
549,1,2,11,996,1
549,1,2,12,1012,1
549,1,2,13,759,1
549,1,2,14,816,1
549,1,2,15,720,1
549,1,2,16,910,1
549,1,2,17,935,1
549,1,2,18,877,1
549,1,2,19,661,1
549,1,2,20,1122,1
549,1,2,21,899,1
549,1,2,22,1091,1
549,1,2,23,776,1
549,1,2,24,803,1
549,1,2,25,747,1
549,1,2,26,764,1
549,1,2,27,774,1
549,1,2,28,1207,1
549,1,2,29,584,1
549,1,2,30,726,1
549,1,2,31,657,1
549,1,2,32,683,1
549,1,2,33,662,1
549,1,2,34,1102,1
549,1,2,35,661,1
549,1,2,36,621,1
549,1,2,37,577,1
549,1,2,38,1103,1
549,1,2,39,690,1
549,1,2,40,710,1
521,1,1,1,792,1
521,1,1,2,580,1
521,1,1,3,550,1
521,1,1,4,541,1
521,1,1,5,596,1
521,1,1,6,531,1
521,1,1,7,643,1
521,1,1,8,631,1
521,1,1,9,603,1
521,1,1,10,538,1
521,1,1,11,542,1
521,1,1,12,600,1
521,1,1,13,567,1
521,1,1,14,543,1
521,1,1,15,576,1
521,1,1,16,586,1
521,1,1,17,736,1
521,1,1,18,523,1
521,1,1,19,468,1
521,1,1,20,613,1
521,1,1,21,535,1
521,1,1,22,512,1
521,1,1,23,630,1
521,1,1,24,606,1
521,1,1,25,534,1
521,1,1,26,441,1
521,1,1,27,530,1
521,1,1,28,419,1
521,1,1,29,492,1
521,1,1,30,429,1
521,1,1,31,863,1
521,1,1,32,648,1
521,1,1,33,422,1
521,1,1,34,519,1
521,1,1,35,523,1
521,1,1,36,529,1
521,1,1,37,485,1
521,1,1,38,523,1
521,1,1,39,535,1
521,1,1,40,1129,0
521,1,2,1,1606,1
521,1,2,2,884,1
521,1,2,3,1145,1
521,1,2,4,699,1
521,1,2,5,752,1
521,1,2,6,895,1
521,1,2,7,675,1
521,1,2,8,674,1
521,1,2,9,594,1
521,1,2,10,532,1
521,1,2,11,664,1
521,1,2,12,510,1
521,1,2,13,480,1
521,1,2,14,535,1
521,1,2,15,438,1
521,1,2,16,504,1
521,1,2,17,1533,0
521,1,2,18,619,1
521,1,2,19,548,1
521,1,2,20,648,1
521,1,2,21,668,1
521,1,2,22,583,1
521,1,2,23,634,1
521,1,2,24,612,1
521,1,2,25,543,1
521,1,2,26,596,1
521,1,2,27,599,1
521,1,2,28,762,1
521,1,2,29,795,1
521,1,2,30,502,1
521,1,2,31,649,1
521,1,2,32,792,1
521,1,2,33,706,1
521,1,2,34,494,1
521,1,2,35,603,1
521,1,2,36,1057,0
521,1,2,37,643,1
521,1,2,38,916,0
521,1,2,39,669,1
521,1,2,40,678,1
543,1,1,1,2266,1
543,1,1,2,717,1
543,1,1,3,610,1
543,1,1,4,770,1
543,1,1,5,706,1
543,1,1,6,655,1
543,1,1,7,624,1
543,1,1,8,669,1
543,1,1,9,617,1
543,1,1,10,652,1
543,1,1,11,676,1
543,1,1,12,1746,1
543,1,1,13,1045,1
543,1,1,14,633,1
543,1,1,15,679,1
543,1,1,16,602,1
543,1,1,17,747,1
543,1,1,18,709,1
543,1,1,19,708,1
543,1,1,20,646,1
543,1,1,21,752,1
543,1,1,22,620,1
543,1,1,23,683,1
543,1,1,24,680,1
543,1,1,25,618,1
543,1,1,26,1140,1
543,1,1,27,742,1
543,1,1,28,665,1
543,1,1,29,659,1
543,1,1,30,597,1
543,1,1,31,687,1
543,1,1,32,738,1
543,1,1,33,652,1
543,1,1,34,800,1
543,1,1,35,669,1
543,1,1,36,657,1
543,1,1,37,714,1
543,1,1,38,627,1
543,1,1,39,776,1
543,1,1,40,638,1
543,1,2,1,1885,1
543,1,2,2,832,1
543,1,2,3,795,1
543,1,2,4,1829,1
543,1,2,5,963,1
543,1,2,6,1204,1
543,1,2,7,1005,1
543,1,2,8,854,1
543,1,2,9,743,1
543,1,2,10,804,1
543,1,2,11,853,1
543,1,2,12,795,1
543,1,2,13,710,1
543,1,2,14,1002,1
543,1,2,15,761,1
543,1,2,16,838,1
543,1,2,17,677,1
543,1,2,18,2157,1
543,1,2,19,713,1
543,1,2,20,880,1
543,1,2,21,881,1
543,1,2,22,712,1
543,1,2,23,1197,1
543,1,2,24,1478,0
543,1,2,25,1074,1
543,1,2,26,1775,1
543,1,2,27,770,1
543,1,2,28,977,1
543,1,2,29,908,1
543,1,2,30,646,1
543,1,2,31,719,1
543,1,2,32,791,1
543,1,2,33,798,1
543,1,2,34,784,1
543,1,2,35,863,1
543,1,2,36,830,1
543,1,2,37,900,1
543,1,2,38,872,1
543,1,2,39,977,1
543,1,2,40,2613,1
524,2,1,1,773,1
524,2,1,2,583,1
524,2,1,3,609,1
524,2,1,4,722,1
524,2,1,5,527,1
524,2,1,6,403,1
524,2,1,7,437,1
524,2,1,8,413,1
524,2,1,9,527,1
524,2,1,10,500,1
524,2,1,11,418,1
524,2,1,12,411,1
524,2,1,13,565,1
524,2,1,14,457,1
524,2,1,15,576,1
524,2,1,16,603,1
524,2,1,17,668,1
524,2,1,18,466,1
524,2,1,19,625,1
524,2,1,20,627,1
524,2,1,21,627,1
524,2,1,22,483,1
524,2,1,23,570,1
524,2,1,24,436,1
524,2,1,25,637,1
524,2,1,26,621,1
524,2,1,27,525,1
524,2,1,28,394,1
524,2,1,29,525,1
524,2,1,30,434,1
524,2,1,31,426,1
524,2,1,32,547,1
524,2,1,33,743,1
524,2,1,34,403,1
524,2,1,35,485,1
524,2,1,36,523,1
524,2,1,37,465,1
524,2,1,38,456,1
524,2,1,39,463,1
524,2,1,40,439,1
524,2,2,1,713,1
524,2,2,2,528,1
524,2,2,3,508,1
524,2,2,4,705,1
524,2,2,5,614,1
524,2,2,6,416,1
524,2,2,7,481,1
524,2,2,8,655,1
524,2,2,9,550,1
524,2,2,10,786,1
524,2,2,11,564,1
524,2,2,12,639,1
524,2,2,13,439,1
524,2,2,14,392,1
524,2,2,15,522,1
524,2,2,16,655,1
524,2,2,17,478,1
524,2,2,18,709,1
524,2,2,19,786,1
524,2,2,20,588,1
524,2,2,21,598,1
524,2,2,22,537,1
524,2,2,23,588,1
524,2,2,24,454,1
524,2,2,25,462,1
524,2,2,26,509,1
524,2,2,27,507,1
524,2,2,28,601,1
524,2,2,29,514,1
524,2,2,30,1024,1
524,2,2,31,655,1
524,2,2,32,591,1
524,2,2,33,561,1
524,2,2,34,436,1
524,2,2,35,556,1
524,2,2,36,473,1
524,2,2,37,463,1
524,2,2,38,575,1
524,2,2,39,609,1
524,2,2,40,474,1
522,2,1,1,615,1
522,2,1,2,556,1
522,2,1,3,532,1
522,2,1,4,479,1
522,2,1,5,634,1
522,2,1,6,549,1
522,2,1,7,585,1
522,2,1,8,633,1
522,2,1,9,551,1
522,2,1,10,534,1
522,2,1,11,434,1
522,2,1,12,532,1
522,2,1,13,453,1
522,2,1,14,1079,0
522,2,1,15,874,1
522,2,1,16,540,1
522,2,1,17,471,1
522,2,1,18,528,1
522,2,1,19,489,1
522,2,1,20,433,1
522,2,1,21,460,1
522,2,1,22,524,1
522,2,1,23,583,1
522,2,1,24,600,1
522,2,1,25,609,1
522,2,1,26,600,1
522,2,1,27,652,1
522,2,1,28,672,1
522,2,1,29,698,1
522,2,1,30,568,1
522,2,1,31,655,1
522,2,1,32,552,1
522,2,1,33,733,1
522,2,1,34,661,1
522,2,1,35,824,1
522,2,1,36,746,1
522,2,1,37,597,1
522,2,1,38,723,1
522,2,1,39,556,1
522,2,1,40,576,1
522,2,2,1,752,1
522,2,2,2,531,1
522,2,2,3,695,1
522,2,2,4,434,1
522,2,2,5,503,1
522,2,2,6,371,1
522,2,2,7,416,1
522,2,2,8,796,1
522,2,2,9,553,1
522,2,2,10,1044,0
522,2,2,11,876,1
522,2,2,12,575,1
522,2,2,13,903,1
522,2,2,14,1217,0
522,2,2,15,554,1
522,2,2,16,524,1
522,2,2,17,465,1
522,2,2,18,419,1
522,2,2,19,471,1
522,2,2,20,393,1
522,2,2,21,381,1
522,2,2,22,461,1
522,2,2,23,424,1
522,2,2,24,587,1
522,2,2,25,475,1
522,2,2,26,381,1
522,2,2,27,814,1
522,2,2,28,1370,1
522,2,2,29,691,1
522,2,2,30,819,1
522,2,2,31,780,1
522,2,2,32,911,1
522,2,2,33,628,1
522,2,2,34,693,1
522,2,2,35,682,1
522,2,2,36,843,1
522,2,2,37,548,1
522,2,2,38,647,1
522,2,2,39,489,1
522,2,2,40,720,1
535,1,1,1,1125,1
535,1,1,2,752,1
535,1,1,3,602,1
535,1,1,4,497,1
535,1,1,5,476,1
535,1,1,6,1085,1
535,1,1,7,632,1
535,1,1,8,555,1
535,1,1,9,475,1
535,1,1,10,505,1
535,1,1,11,584,1
535,1,1,12,429,1
535,1,1,13,561,1
535,1,1,14,386,1
535,1,1,15,518,1
535,1,1,16,447,1
535,1,1,17,387,1
535,1,1,18,431,1
535,1,1,19,640,1
535,1,1,20,359,1
535,1,1,21,543,1
535,1,1,22,655,1
535,1,1,23,573,1
535,1,1,24,387,1
535,1,1,25,525,1
535,1,1,26,583,1
535,1,1,27,427,1
535,1,1,28,495,1
535,1,1,29,796,0
535,1,1,30,602,1
535,1,1,31,649,1
535,1,1,32,639,1
535,1,1,33,450,1
535,1,1,34,631,1
535,1,1,35,455,1
535,1,1,36,404,1
535,1,1,37,883,1
535,1,1,38,567,1
535,1,1,39,368,1
535,1,1,40,651,1
535,1,2,1,627,1
535,1,2,2,1018,0
535,1,2,3,763,1
535,1,2,4,729,1
535,1,2,5,543,1
535,1,2,6,844,0
535,1,2,7,666,1
535,1,2,8,806,1
535,1,2,9,562,1
535,1,2,10,866,1
535,1,2,11,596,1
535,1,2,12,851,1
535,1,2,13,643,1
535,1,2,14,630,1
535,1,2,15,436,1
535,1,2,16,844,1
535,1,2,17,589,1
535,1,2,18,783,1
535,1,2,19,580,1
535,1,2,20,444,1
535,1,2,21,472,1
535,1,2,22,462,1
535,1,2,23,520,1
535,1,2,24,706,1
535,1,2,25,622,1
535,1,2,26,699,1
535,1,2,27,483,1
535,1,2,28,583,1
535,1,2,29,438,1
535,1,2,30,511,1
535,1,2,31,465,1
535,1,2,32,563,1
535,1,2,33,595,1
535,1,2,34,894,0
535,1,2,35,637,1
535,1,2,36,574,1
535,1,2,37,534,1
535,1,2,38,802,1
535,1,2,39,467,1
535,1,2,40,466,1
531,1,1,1,1092,1
531,1,1,2,1092,1
531,1,1,3,1056,1
531,1,1,4,846,1
531,1,1,5,990,1
531,1,1,6,798,1
531,1,1,7,849,1
531,1,1,8,946,1
531,1,1,9,768,1
531,1,1,10,1004,1
531,1,1,11,703,1
531,1,1,12,874,1
531,1,1,13,893,1
531,1,1,14,1030,1
531,1,1,15,726,1
531,1,1,16,821,1
531,1,1,17,783,1
531,1,1,18,772,1
531,1,1,19,878,1
531,1,1,20,728,1
531,1,1,21,780,1
531,1,1,22,765,1
531,1,1,23,801,1
531,1,1,24,744,1
531,1,1,25,776,1
531,1,1,26,680,1
531,1,1,27,701,1
531,1,1,28,675,1
531,1,1,29,796,1
531,1,1,30,782,1
531,1,1,31,757,1
531,1,1,32,785,1
531,1,1,33,920,1
531,1,1,34,859,1
531,1,1,35,730,1
531,1,1,36,680,1
531,1,1,37,720,1
531,1,1,38,678,1
531,1,1,39,770,1
531,1,1,40,666,1
531,1,2,1,1130,1
531,1,2,2,862,1
531,1,2,3,661,1
531,1,2,4,967,1
531,1,2,5,655,1
531,1,2,6,584,1
531,1,2,7,689,1
531,1,2,8,1909,1
531,1,2,9,733,1
531,1,2,10,814,1
531,1,2,11,1636,0
531,1,2,12,741,1
531,1,2,13,679,1
531,1,2,14,793,1
531,1,2,15,775,1
531,1,2,16,1011,1
531,1,2,17,1095,1
531,1,2,18,698,1
531,1,2,19,1073,1
531,1,2,20,743,1
531,1,2,21,649,1
531,1,2,22,683,1
531,1,2,23,709,1
531,1,2,24,582,1
531,1,2,25,1081,1
531,1,2,26,745,1
531,1,2,27,875,1
531,1,2,28,734,1
531,1,2,29,871,1
531,1,2,30,797,1
531,1,2,31,785,1
531,1,2,32,689,1
531,1,2,33,710,1
531,1,2,34,698,1
531,1,2,35,765,1
531,1,2,36,645,1
531,1,2,37,717,1
531,1,2,38,648,1
531,1,2,39,726,1
531,1,2,40,759,1
528,2,1,1,656,1
528,2,1,2,648,1
528,2,1,3,547,1
528,2,1,4,741,1
528,2,1,5,452,1
528,2,1,6,465,1
528,2,1,7,462,1
528,2,1,8,503,1
528,2,1,9,766,0
528,2,1,10,464,1
528,2,1,11,463,1
528,2,1,12,382,1
528,2,1,13,369,1
528,2,1,14,374,1
528,2,1,15,1016,0
528,2,1,16,827,0
528,2,1,17,443,1
528,2,1,18,474,1
528,2,1,19,383,1
528,2,1,20,766,1
528,2,1,21,474,1
528,2,1,22,457,1
528,2,1,23,419,1
528,2,1,24,479,1
528,2,1,25,539,1
528,2,1,26,436,1
528,2,1,27,400,1
528,2,1,28,457,1
528,2,1,29,478,1
528,2,1,30,379,1
528,2,1,31,451,1
528,2,1,32,437,1
528,2,1,33,382,1
528,2,1,34,418,1
528,2,1,35,377,1
528,2,1,36,476,1
528,2,1,37,851,0
528,2,1,38,583,1
528,2,1,39,641,0
528,2,1,40,776,0
528,2,2,1,1044,1
528,2,2,2,674,1
528,2,2,3,727,1
528,2,2,4,987,0
528,2,2,5,490,1
528,2,2,6,447,1
528,2,2,7,422,1
528,2,2,8,442,1
528,2,2,9,396,1
528,2,2,10,512,1
528,2,2,11,370,1
528,2,2,12,370,1
528,2,2,13,407,1
528,2,2,14,606,1
528,2,2,15,431,1
528,2,2,16,435,1
528,2,2,17,894,0
528,2,2,18,754,0
528,2,2,19,393,1
528,2,2,20,438,1
528,2,2,21,671,1
528,2,2,22,483,1
528,2,2,23,679,1
528,2,2,24,442,1
528,2,2,25,644,1
528,2,2,26,605,1
528,2,2,27,508,1
528,2,2,28,941,0
528,2,2,29,517,1
528,2,2,30,474,1
528,2,2,31,770,0
528,2,2,32,527,1
528,2,2,33,696,1
528,2,2,34,833,0
528,2,2,35,627,1
528,2,2,36,760,0
528,2,2,37,727,0
528,2,2,38,697,1
528,2,2,39,574,1
528,2,2,40,339,1
488,2,1,1,1544,1
488,2,1,2,1567,1
488,2,1,3,690,1
488,2,1,4,517,1
488,2,1,5,636,1
488,2,1,6,514,1
488,2,1,7,477,1
488,2,1,8,1017,1
488,2,1,9,821,1
488,2,1,10,606,1
488,2,1,11,483,1
488,2,1,12,449,1
488,2,1,13,731,1
488,2,1,14,482,1
488,2,1,15,416,1
488,2,1,16,744,1
488,2,1,17,444,1
488,2,1,18,492,1
488,2,1,19,445,1
488,2,1,20,344,1
488,2,1,21,493,1
488,2,1,22,811,0
488,2,1,23,705,1
488,2,1,24,458,1
488,2,1,25,624,1
488,2,1,26,441,1
488,2,1,27,324,1
488,2,1,28,632,1
488,2,1,29,386,1
488,2,1,30,400,1
488,2,1,31,793,1
488,2,1,32,579,1
488,2,1,33,440,1
488,2,1,34,482,1
488,2,1,35,421,1
488,2,1,36,506,1
488,2,1,37,1051,0
488,2,1,38,1196,1
488,2,1,39,687,1
488,2,1,40,680,1
488,2,2,1,1415,1
488,2,2,2,1525,1
488,2,2,3,567,1
488,2,2,4,854,1
488,2,2,5,554,1
488,2,2,6,1644,1
488,2,2,7,1505,1
488,2,2,8,1128,1
488,2,2,9,1321,1
488,2,2,10,898,1
488,2,2,11,753,1
488,2,2,12,611,1
488,2,2,13,706,1
488,2,2,14,769,1
488,2,2,15,800,1
488,2,2,16,1083,0
488,2,2,17,880,1
488,2,2,18,1035,0
488,2,2,19,951,1
488,2,2,20,1441,1
488,2,2,21,928,1
488,2,2,22,1083,0
488,2,2,23,783,1
488,2,2,24,914,1
488,2,2,25,891,1
488,2,2,26,870,1
488,2,2,27,1248,1
488,2,2,28,947,1
488,2,2,29,827,1
488,2,2,30,648,1
488,2,2,31,861,1
488,2,2,32,1004,1
488,2,2,33,1173,0
488,2,2,34,1412,1
488,2,2,35,761,1
488,2,2,36,625,1
488,2,2,37,429,1
488,2,2,38,1245,1
488,2,2,39,697,1
488,2,2,40,497,1
545,1,1,1,646,1
545,1,1,2,507,1
545,1,1,3,616,1
545,1,1,4,634,1
545,1,1,5,572,1
545,1,1,6,521,1
545,1,1,7,549,1
545,1,1,8,551,1
545,1,1,9,565,1
545,1,1,10,527,1
545,1,1,11,598,1
545,1,1,12,558,1
545,1,1,13,584,1
545,1,1,14,540,1
545,1,1,15,585,1
545,1,1,16,559,1
545,1,1,17,570,1
545,1,1,18,515,1
545,1,1,19,556,1
545,1,1,20,530,1
545,1,1,21,557,1
545,1,1,22,481,1
545,1,1,23,557,1
545,1,1,24,531,1
545,1,1,25,548,1
545,1,1,26,734,1
545,1,1,27,557,1
545,1,1,28,599,1
545,1,1,29,532,1
545,1,1,30,568,1
545,1,1,31,537,1
545,1,1,32,578,1
545,1,1,33,556,1
545,1,1,34,530,1
545,1,1,35,491,1
545,1,1,36,477,1
545,1,1,37,494,1
545,1,1,38,549,1
545,1,1,39,610,1
545,1,1,40,533,1
545,1,2,1,1050,1
545,1,2,2,655,1
545,1,2,3,1203,1
545,1,2,4,732,1
545,1,2,5,1257,1
545,1,2,6,477,1
545,1,2,7,497,1
545,1,2,8,523,1
545,1,2,9,562,1
545,1,2,10,419,1
545,1,2,11,389,1
545,1,2,12,1727,0
545,1,2,13,752,1
545,1,2,14,1006,1
545,1,2,15,623,1
545,1,2,16,649,1
545,1,2,17,565,1
545,1,2,18,585,1
545,1,2,19,554,1
545,1,2,20,637,1
545,1,2,21,631,1
545,1,2,22,519,1
545,1,2,23,551,1
545,1,2,24,464,1
545,1,2,25,548,1
545,1,2,26,680,1
545,1,2,27,679,1
545,1,2,28,718,1
545,1,2,29,555,1
545,1,2,30,861,0
545,1,2,31,571,1
545,1,2,32,1018,1
545,1,2,33,758,1
545,1,2,34,984,1
545,1,2,35,480,1
545,1,2,36,813,1
545,1,2,37,535,1
545,1,2,38,817,1
545,1,2,39,600,1
545,1,2,40,619,1
525,1,1,1,745,1
525,1,1,2,422,1
525,1,1,3,537,1
525,1,1,4,430,1
525,1,1,5,440,1
525,1,1,6,434,1
525,1,1,7,467,1
525,1,1,8,592,1
525,1,1,9,434,1
525,1,1,10,644,1
525,1,1,11,629,1
525,1,1,12,744,1
525,1,1,13,357,1
525,1,1,14,540,1
525,1,1,15,1210,0
525,1,1,16,596,1
525,1,1,17,632,1
525,1,1,18,474,1
525,1,1,19,497,1
525,1,1,20,425,1
525,1,1,21,411,1
525,1,1,22,582,1
525,1,1,23,449,1
525,1,1,24,426,1
525,1,1,25,561,1
525,1,1,26,502,1
525,1,1,27,565,1
525,1,1,28,553,1
525,1,1,29,510,1
525,1,1,30,461,1
525,1,1,31,481,1
525,1,1,32,530,1
525,1,1,33,471,1
525,1,1,34,528,1
525,1,1,35,542,1
525,1,1,36,571,1
525,1,1,37,545,1
525,1,1,38,487,1
525,1,1,39,607,1
525,1,1,40,377,1
525,1,2,1,988,1
525,1,2,2,1119,1
525,1,2,3,638,1
525,1,2,4,697,1
525,1,2,5,633,1
525,1,2,6,602,1
525,1,2,7,589,1
525,1,2,8,584,1
525,1,2,9,655,1
525,1,2,10,1417,1
525,1,2,11,738,1
525,1,2,12,623,1
525,1,2,13,609,1
525,1,2,14,512,1
525,1,2,15,615,1
525,1,2,16,554,1
525,1,2,17,630,1
525,1,2,18,441,1
525,1,2,19,938,1
525,1,2,20,543,1
525,1,2,21,532,1
525,1,2,22,498,1
525,1,2,23,641,1
525,1,2,24,450,1
525,1,2,25,744,1
525,1,2,26,485,1
525,1,2,27,645,1
525,1,2,28,678,1
525,1,2,29,910,1
525,1,2,30,757,1
525,1,2,31,1186,0
525,1,2,32,781,1
525,1,2,33,785,1
525,1,2,34,824,1
525,1,2,35,810,1
525,1,2,36,773,1
525,1,2,37,753,1
525,1,2,38,822,1
525,1,2,39,714,1
525,1,2,40,897,1
518,2,1,1,602,1
518,2,1,2,406,1
518,2,1,3,417,1
518,2,1,4,844,0
518,2,1,5,565,1
518,2,1,6,410,1
518,2,1,7,437,1
518,2,1,8,391,1
518,2,1,9,395,1
518,2,1,10,491,1
518,2,1,11,507,1
518,2,1,12,442,1
518,2,1,13,380,1
518,2,1,14,401,1
518,2,1,15,396,1
518,2,1,16,448,1
518,2,1,17,378,1
518,2,1,18,391,1
518,2,1,19,435,1
518,2,1,20,501,1
518,2,1,21,380,1
518,2,1,22,401,1
518,2,1,23,828,0
518,2,1,24,454,1
518,2,1,25,431,1
518,2,1,26,442,1
518,2,1,27,476,1
518,2,1,28,449,1
518,2,1,29,406,1
518,2,1,30,525,1
518,2,1,31,404,1
518,2,1,32,451,1
518,2,1,33,425,1
518,2,1,34,427,1
518,2,1,35,694,0
518,2,1,36,429,1
518,2,1,37,448,1
518,2,1,38,490,1
518,2,1,39,426,1
518,2,1,40,476,1
518,2,2,1,697,1
518,2,2,2,1601,1
518,2,2,3,524,1
518,2,2,4,419,1
518,2,2,5,382,1
518,2,2,6,546,1
518,2,2,7,600,1
518,2,2,8,371,1
518,2,2,9,368,1
518,2,2,10,709,1
518,2,2,11,720,1
518,2,2,12,751,1
518,2,2,13,476,1
518,2,2,14,533,1
518,2,2,15,459,1
518,2,2,16,571,1
518,2,2,17,545,1
518,2,2,18,495,1
518,2,2,19,631,1
518,2,2,20,313,1
518,2,2,21,505,1
518,2,2,22,496,1
518,2,2,23,656,1
518,2,2,24,656,1
518,2,2,25,386,1
518,2,2,26,494,1
518,2,2,27,430,1
518,2,2,28,464,1
518,2,2,29,514,1
518,2,2,30,698,0
518,2,2,31,505,1
518,2,2,32,444,1
518,2,2,33,674,1
518,2,2,34,395,1
518,2,2,35,574,1
518,2,2,36,580,1
518,2,2,37,528,1
518,2,2,38,391,1
518,2,2,39,595,1
518,2,2,40,599,1
500,2,1,1,865,1
500,2,1,2,449,1
500,2,1,3,490,1
500,2,1,4,354,1
500,2,1,5,472,1
500,2,1,6,560,1
500,2,1,7,397,1
500,2,1,8,449,1
500,2,1,9,475,1
500,2,1,10,363,1
500,2,1,11,480,1
500,2,1,12,417,1
500,2,1,13,499,1
500,2,1,14,379,1
500,2,1,15,463,1
500,2,1,16,416,1
500,2,1,17,547,1
500,2,1,18,441,1
500,2,1,19,603,1
500,2,1,20,430,1
500,2,1,21,457,1
500,2,1,22,506,1
500,2,1,23,601,1
500,2,1,24,572,1
500,2,1,25,497,1
500,2,1,26,1745,0
500,2,1,27,446,1
500,2,1,28,448,1
500,2,1,29,386,1
500,2,1,30,366,1
500,2,1,31,475,1
500,2,1,32,475,1
500,2,1,33,484,1
500,2,1,34,476,1
500,2,1,35,396,1
500,2,1,36,464,1
500,2,1,37,545,1
500,2,1,38,519,1
500,2,1,39,598,1
500,2,1,40,594,1
500,2,2,1,2741,1
500,2,2,2,562,1
500,2,2,3,448,1
500,2,2,4,746,1
500,2,2,5,975,1
500,2,2,6,700,1
500,2,2,7,619,1
500,2,2,8,566,1
500,2,2,9,666,1
500,2,2,10,595,1
500,2,2,11,471,1
500,2,2,12,879,1
500,2,2,13,736,1
500,2,2,14,670,1
500,2,2,15,406,1
500,2,2,16,490,1
500,2,2,17,578,1
500,2,2,18,822,1
500,2,2,19,713,1
500,2,2,20,1008,0
500,2,2,21,554,1
500,2,2,22,784,1
500,2,2,23,724,1
500,2,2,24,522,1
500,2,2,25,441,1
500,2,2,26,523,1
500,2,2,27,601,1
500,2,2,28,380,1
500,2,2,29,561,1
500,2,2,30,422,1
500,2,2,31,897,1
500,2,2,32,417,1
500,2,2,33,587,1
500,2,2,34,543,1
500,2,2,35,533,1
500,2,2,36,459,1
500,2,2,37,948,1
500,2,2,38,778,1
500,2,2,39,591,1
500,2,2,40,619,1
529,1,1,1,672,1
529,1,1,2,1017,0
529,1,1,3,619,1
529,1,1,4,550,1
529,1,1,5,387,1
529,1,1,6,543,1
529,1,1,7,461,1
529,1,1,8,486,1
529,1,1,9,414,1
529,1,1,10,506,1
529,1,1,11,465,1
529,1,1,12,450,1
529,1,1,13,499,1
529,1,1,14,474,1
529,1,1,15,467,1
529,1,1,16,428,1
529,1,1,17,550,1
529,1,1,18,900,0
529,1,1,19,530,1
529,1,1,20,609,1
529,1,1,21,740,0
529,1,1,22,674,1
529,1,1,23,426,1
529,1,1,24,581,1
529,1,1,25,362,1
529,1,1,26,415,1
529,1,1,27,642,1
529,1,1,28,420,1
529,1,1,29,382,1
529,1,1,30,450,1
529,1,1,31,372,1
529,1,1,32,416,1
529,1,1,33,459,1
529,1,1,34,548,1
529,1,1,35,450,1
529,1,1,36,355,1
529,1,1,37,488,0
529,1,1,38,496,1
529,1,1,39,480,1
529,1,1,40,440,1
529,1,2,1,596,1
529,1,2,2,2200,0
529,1,2,3,538,1
529,1,2,4,744,0
529,1,2,5,598,1
529,1,2,6,1074,0
529,1,2,7,1114,1
529,1,2,8,897,1
529,1,2,9,721,1
529,1,2,10,688,1
529,1,2,11,544,1
529,1,2,12,742,1
529,1,2,13,516,1
529,1,2,14,466,1
529,1,2,15,507,1
529,1,2,16,906,0
529,1,2,17,569,1
529,1,2,18,726,1
529,1,2,19,492,1
529,1,2,20,404,1
529,1,2,21,568,1
529,1,2,22,468,1
529,1,2,23,573,1
529,1,2,24,706,1
529,1,2,25,801,0
529,1,2,26,692,1
529,1,2,27,572,1
529,1,2,28,776,1
529,1,2,29,589,1
529,1,2,30,481,1
529,1,2,31,770,0
529,1,2,32,894,1
529,1,2,33,630,1
529,1,2,34,576,1
529,1,2,35,589,1
529,1,2,36,585,1
529,1,2,37,645,1
529,1,2,38,431,1
529,1,2,39,402,1
529,1,2,40,445,1
515,1,1,1,1297,1
515,1,1,2,735,1
515,1,1,3,568,1
515,1,1,4,624,1
515,1,1,5,534,1
515,1,1,6,559,1
515,1,1,7,471,1
515,1,1,8,547,1
515,1,1,9,475,1
515,1,1,10,728,1
515,1,1,11,609,1
515,1,1,12,575,1
515,1,1,13,543,1
515,1,1,14,511,1
515,1,1,15,465,1
515,1,1,16,517,1
515,1,1,17,662,1
515,1,1,18,795,1
515,1,1,19,690,1
515,1,1,20,678,1
515,1,1,21,682,1
515,1,1,22,605,1
515,1,1,23,516,1
515,1,1,24,622,1
515,1,1,25,612,1
515,1,1,26,594,1
515,1,1,27,585,1
515,1,1,28,480,1
515,1,1,29,419,1
515,1,1,30,424,1
515,1,1,31,454,1
515,1,1,32,458,1
515,1,1,33,678,1
515,1,1,34,498,1
515,1,1,35,732,1
515,1,1,36,566,1
515,1,1,37,694,1
515,1,1,38,729,1
515,1,1,39,683,1
515,1,1,40,759,1
515,1,2,1,941,1
515,1,2,2,567,1
515,1,2,3,519,1
515,1,2,4,537,1
515,1,2,5,626,1
515,1,2,6,735,1
515,1,2,7,633,1
515,1,2,8,743,1
515,1,2,9,688,1
515,1,2,10,740,1
515,1,2,11,550,1
515,1,2,12,542,1
515,1,2,13,560,1
515,1,2,14,632,1
515,1,2,15,509,1
515,1,2,16,584,1
515,1,2,17,575,1
515,1,2,18,646,1
515,1,2,19,683,1
515,1,2,20,807,1
515,1,2,21,558,1
515,1,2,22,631,1
515,1,2,23,564,1
515,1,2,24,748,1
515,1,2,25,407,1
515,1,2,26,540,1
515,1,2,27,653,1
515,1,2,28,674,1
515,1,2,29,534,1
515,1,2,30,575,1
515,1,2,31,496,1
515,1,2,32,594,1
515,1,2,33,800,1
515,1,2,34,560,1
515,1,2,35,712,1
515,1,2,36,659,1
515,1,2,37,679,1
515,1,2,38,475,1
515,1,2,39,1015,1
515,1,2,40,567,1
466,2,1,1,3541,1
466,2,1,2,1283,1
466,2,1,3,979,1
466,2,1,4,1272,1
466,2,1,5,944,1
466,2,1,6,1070,1
466,2,1,7,887,1
466,2,1,8,887,1
466,2,1,9,1759,1
466,2,1,10,1028,1
466,2,1,11,983,1
466,2,1,12,1011,1
466,2,1,13,830,1
466,2,1,14,793,1
466,2,1,15,837,1
466,2,1,16,767,1
466,2,1,17,804,1
466,2,1,18,871,1
466,2,1,19,984,1
466,2,1,20,836,1
466,2,1,21,846,1
466,2,1,22,848,1
466,2,1,23,857,1
466,2,1,24,866,1
466,2,1,25,899,1
466,2,1,26,938,1
466,2,1,27,824,1
466,2,1,28,1051,1
466,2,1,29,876,1
466,2,1,30,877,1
466,2,1,31,1158,1
466,2,1,32,971,1
466,2,1,33,831,1
466,2,1,34,801,1
466,2,1,35,997,1
466,2,1,36,1105,1
466,2,1,37,952,1
466,2,1,38,926,1
466,2,1,39,1020,1
466,2,1,40,991,1
466,2,2,1,10721,0
466,2,2,2,3007,0
466,2,2,3,1697,1
466,2,2,4,1282,1
466,2,2,5,1162,1
466,2,2,6,1135,1
466,2,2,7,1141,1
466,2,2,8,2723,0
466,2,2,9,1017,1
466,2,2,10,1411,1
466,2,2,11,951,1
466,2,2,12,1188,1
466,2,2,13,1008,1
466,2,2,14,1620,1
466,2,2,15,1358,1
466,2,2,16,963,1
466,2,2,17,1257,1
466,2,2,18,1434,1
466,2,2,19,1100,1
466,2,2,20,1115,1
466,2,2,21,946,1
466,2,2,22,1472,1
466,2,2,23,801,1
466,2,2,24,1228,1
466,2,2,25,959,1
466,2,2,26,1108,1
466,2,2,27,1356,1
466,2,2,28,913,1
466,2,2,29,832,1
466,2,2,30,1274,1
466,2,2,31,1499,1
466,2,2,32,914,1
466,2,2,33,1602,1
466,2,2,34,741,1
466,2,2,35,827,1
466,2,2,36,997,1
466,2,2,37,914,1
466,2,2,38,1537,1
466,2,2,39,1599,1
466,2,2,40,778,1
507,1,1,1,1202,1
507,1,1,2,788,1
507,1,1,3,765,1
507,1,1,4,744,1
507,1,1,5,1344,1
507,1,1,6,999,1
507,1,1,7,1013,1
507,1,1,8,752,1
507,1,1,9,797,1
507,1,1,10,663,1
507,1,1,11,951,1
507,1,1,12,747,1
507,1,1,13,757,1
507,1,1,14,703,1
507,1,1,15,1366,1
507,1,1,16,1074,1
507,1,1,17,734,1
507,1,1,18,736,1
507,1,1,19,812,1
507,1,1,20,700,1
507,1,1,21,777,1
507,1,1,22,1221,1
507,1,1,23,661,1
507,1,1,24,625,1
507,1,1,25,765,1
507,1,1,26,665,1
507,1,1,27,598,1
507,1,1,28,789,1
507,1,1,29,608,1
507,1,1,30,668,1
507,1,1,31,588,1
507,1,1,32,616,1
507,1,1,33,595,1
507,1,1,34,666,1
507,1,1,35,716,1
507,1,1,36,983,1
507,1,1,37,616,1
507,1,1,38,675,1
507,1,1,39,454,1
507,1,1,40,591,1
507,1,2,1,822,1
507,1,2,2,1381,1
507,1,2,3,1983,1
507,1,2,4,1669,1
507,1,2,5,888,1
507,1,2,6,1213,1
507,1,2,7,818,1
507,1,2,8,780,1
507,1,2,9,863,1
507,1,2,10,845,1
507,1,2,11,738,1
507,1,2,12,1239,1
507,1,2,13,648,1
507,1,2,14,698,1
507,1,2,15,744,1
507,1,2,16,700,1
507,1,2,17,665,1
507,1,2,18,656,1
507,1,2,19,721,1
507,1,2,20,1034,1
507,1,2,21,721,1
507,1,2,22,1381,1
507,1,2,23,703,1
507,1,2,24,1043,1
507,1,2,25,585,1
507,1,2,26,1090,1
507,1,2,27,713,1
507,1,2,28,920,1
507,1,2,29,745,1
507,1,2,30,1189,1
507,1,2,31,743,1
507,1,2,32,723,1
507,1,2,33,727,1
507,1,2,34,800,1
507,1,2,35,624,1
507,1,2,36,730,1
507,1,2,37,795,1
507,1,2,38,876,1
507,1,2,39,539,1
507,1,2,40,840,1
490,2,1,1,590,1
490,2,1,2,432,1
490,2,1,3,561,1
490,2,1,4,440,1
490,2,1,5,338,1
490,2,1,6,434,1
490,2,1,7,737,0
490,2,1,8,514,1
490,2,1,9,556,1
490,2,1,10,427,1
490,2,1,11,374,1
490,2,1,12,376,1
490,2,1,13,337,1
490,2,1,14,469,1
490,2,1,15,501,1
490,2,1,16,469,1
490,2,1,17,460,1
490,2,1,18,756,1
490,2,1,19,421,1
490,2,1,20,426,1
490,2,1,21,582,1
490,2,1,22,426,1
490,2,1,23,544,1
490,2,1,24,601,1
490,2,1,25,451,1
490,2,1,26,374,1
490,2,1,27,549,1
490,2,1,28,396,1
490,2,1,29,566,1
490,2,1,30,439,1
490,2,1,31,465,1
490,2,1,32,497,1
490,2,1,33,482,1
490,2,1,34,459,1
490,2,1,35,486,1
490,2,1,36,472,1
490,2,1,37,492,1
490,2,1,38,429,1
490,2,1,39,419,1
490,2,1,40,367,1
490,2,2,1,659,1
490,2,2,2,1452,1
490,2,2,3,699,1
490,2,2,4,825,1
490,2,2,5,522,1
490,2,2,6,479,1
490,2,2,7,603,1
490,2,2,8,468,1
490,2,2,9,393,1
490,2,2,10,502,1
490,2,2,11,629,1
490,2,2,12,638,1
490,2,2,13,512,1
490,2,2,14,604,1
490,2,2,15,392,1
490,2,2,16,409,1
490,2,2,17,570,1
490,2,2,18,619,1
490,2,2,19,536,1
490,2,2,20,451,1
490,2,2,21,489,1
490,2,2,22,429,1
490,2,2,23,422,1
490,2,2,24,414,1
490,2,2,25,492,1
490,2,2,26,594,1
490,2,2,27,578,1
490,2,2,28,448,1
490,2,2,29,574,1
490,2,2,30,567,1
490,2,2,31,512,1
490,2,2,32,484,1
490,2,2,33,540,1
490,2,2,34,444,1
490,2,2,35,497,1
490,2,2,36,462,1
490,2,2,37,529,1
490,2,2,38,459,1
490,2,2,39,486,1
490,2,2,40,384,1
508,2,1,1,562,1
508,2,1,2,1017,0
508,2,1,3,470,1
508,2,1,4,857,0
508,2,1,5,461,1
508,2,1,6,441,1
508,2,1,7,461,1
508,2,1,8,664,1
508,2,1,9,611,1
508,2,1,10,569,1
508,2,1,11,440,1
508,2,1,12,428,1
508,2,1,13,481,1
508,2,1,14,491,1
508,2,1,15,421,1
508,2,1,16,481,1
508,2,1,17,836,0
508,2,1,18,520,1
508,2,1,19,465,1
508,2,1,20,556,1
508,2,1,21,540,1
508,2,1,22,428,1
508,2,1,23,473,1
508,2,1,24,395,1
508,2,1,25,409,1
508,2,1,26,414,1
508,2,1,27,499,1
508,2,1,28,445,1
508,2,1,29,457,1
508,2,1,30,436,1
508,2,1,31,424,1
508,2,1,32,476,1
508,2,1,33,815,0
508,2,1,34,476,1
508,2,1,35,399,1
508,2,1,36,460,1
508,2,1,37,399,1
508,2,1,38,365,1
508,2,1,39,467,1
508,2,1,40,446,1
508,2,2,1,843,1
508,2,2,2,697,1
508,2,2,3,538,1
508,2,2,4,827,1
508,2,2,5,600,1
508,2,2,6,462,1
508,2,2,7,521,1
508,2,2,8,746,1
508,2,2,9,506,1
508,2,2,10,612,1
508,2,2,11,634,1
508,2,2,12,630,1
508,2,2,13,563,1
508,2,2,14,906,0
508,2,2,15,540,1
508,2,2,16,676,1
508,2,2,17,615,1
508,2,2,18,892,0
508,2,2,19,535,1
508,2,2,20,615,1
508,2,2,21,588,1
508,2,2,22,763,1
508,2,2,23,554,1
508,2,2,24,586,1
508,2,2,25,512,1
508,2,2,26,586,1
508,2,2,27,585,1
508,2,2,28,631,1
508,2,2,29,467,1
508,2,2,30,646,1
508,2,2,31,514,1
508,2,2,32,675,1
508,2,2,33,566,1
508,2,2,34,669,1
508,2,2,35,680,1
508,2,2,36,555,1
508,2,2,37,555,1
508,2,2,38,667,0
508,2,2,39,517,1
508,2,2,40,902,0
493,1,1,1,826,1
493,1,1,2,453,1
493,1,1,3,686,0
493,1,1,4,643,1
493,1,1,5,562,1
493,1,1,6,513,1
493,1,1,7,506,1
493,1,1,8,468,1
493,1,1,9,503,1
493,1,1,10,628,1
493,1,1,11,658,1
493,1,1,12,649,1
493,1,1,13,570,1
493,1,1,14,523,1
493,1,1,15,581,1
493,1,1,16,569,1
493,1,1,17,516,1
493,1,1,18,515,1
493,1,1,19,479,1
493,1,1,20,531,1
493,1,1,21,513,1
493,1,1,22,485,1
493,1,1,23,489,1
493,1,1,24,614,1
493,1,1,25,565,1
493,1,1,26,527,1
493,1,1,27,589,1
493,1,1,28,465,1
493,1,1,29,687,1
493,1,1,30,681,1
493,1,1,31,540,1
493,1,1,32,483,1
493,1,1,33,537,1
493,1,1,34,523,1
493,1,1,35,562,1
493,1,1,36,599,1
493,1,1,37,629,1
493,1,1,38,606,1
493,1,1,39,575,1
493,1,1,40,545,1
493,1,2,1,2425,1
493,1,2,2,1033,1
493,1,2,3,781,1
493,1,2,4,956,1
493,1,2,5,552,1
493,1,2,6,645,1
493,1,2,7,996,1
493,1,2,8,911,1
493,1,2,9,856,1
493,1,2,10,706,1
493,1,2,11,721,1
493,1,2,12,679,1
493,1,2,13,1024,0
493,1,2,14,802,1
493,1,2,15,3997,0
493,1,2,16,859,1
493,1,2,17,715,1
493,1,2,18,682,1
493,1,2,19,690,1
493,1,2,20,719,1
493,1,2,21,803,1
493,1,2,22,592,1
493,1,2,23,736,1
493,1,2,24,631,1
493,1,2,25,655,1
493,1,2,26,678,1
493,1,2,27,823,1
493,1,2,28,798,1
493,1,2,29,817,1
493,1,2,30,642,1
493,1,2,31,744,1
493,1,2,32,665,1
493,1,2,33,745,1
493,1,2,34,634,1
493,1,2,35,626,1
493,1,2,36,700,1
493,1,2,37,713,1
493,1,2,38,739,1
493,1,2,39,717,1
493,1,2,40,659,1
523,1,1,1,680,1
523,1,1,2,838,1
523,1,1,3,696,1
523,1,1,4,591,1
523,1,1,5,619,1
523,1,1,6,717,1
523,1,1,7,554,1
523,1,1,8,575,1
523,1,1,9,555,1
523,1,1,10,552,1
523,1,1,11,453,1
523,1,1,12,446,1
523,1,1,13,553,1
523,1,1,14,590,1
523,1,1,15,474,1
523,1,1,16,738,1
523,1,1,17,752,1
523,1,1,18,552,1
523,1,1,19,621,1
523,1,1,20,775,1
523,1,1,21,595,1
523,1,1,22,559,1
523,1,1,23,443,1
523,1,1,24,501,1
523,1,1,25,476,1
523,1,1,26,636,1
523,1,1,27,437,1
523,1,1,28,607,1
523,1,1,29,490,1
523,1,1,30,504,1
523,1,1,31,487,1
523,1,1,32,422,1
523,1,1,33,473,1
523,1,1,34,585,1
523,1,1,35,429,1
523,1,1,36,655,1
523,1,1,37,585,1
523,1,1,38,444,1
523,1,1,39,462,1
523,1,1,40,495,1
523,1,2,1,1095,1
523,1,2,2,552,1
523,1,2,3,773,1
523,1,2,4,641,1
523,1,2,5,518,1
523,1,2,6,580,1
523,1,2,7,488,1
523,1,2,8,528,1
523,1,2,9,462,1
523,1,2,10,1239,0
523,1,2,11,596,1
523,1,2,12,583,1
523,1,2,13,659,1
523,1,2,14,620,1
523,1,2,15,568,1
523,1,2,16,772,1
523,1,2,17,560,1
523,1,2,18,589,1
523,1,2,19,576,1
523,1,2,20,613,1
523,1,2,21,551,1
523,1,2,22,812,1
523,1,2,23,527,1
523,1,2,24,725,1
523,1,2,25,619,1
523,1,2,26,534,1
523,1,2,27,452,1
523,1,2,28,613,1
523,1,2,29,424,1
523,1,2,30,994,0
523,1,2,31,670,1
523,1,2,32,670,1
523,1,2,33,598,1
523,1,2,34,594,1
523,1,2,35,597,1
523,1,2,36,513,1
523,1,2,37,597,1
523,1,2,38,577,1
523,1,2,39,501,1
523,1,2,40,764,1
468,2,1,1,951,1
468,2,1,2,874,1
468,2,1,3,500,1
468,2,1,4,553,1
468,2,1,5,434,1
468,2,1,6,818,1
468,2,1,7,760,1
468,2,1,8,666,1
468,2,1,9,599,1
468,2,1,10,345,1
468,2,1,11,452,1
468,2,1,12,427,1
468,2,1,13,1025,0
468,2,1,14,1030,1
468,2,1,15,538,1
468,2,1,16,571,1
468,2,1,17,391,1
468,2,1,18,493,1
468,2,1,19,380,1
468,2,1,20,427,1
468,2,1,21,433,1
468,2,1,22,545,1
468,2,1,23,489,1
468,2,1,24,450,1
468,2,1,25,856,0
468,2,1,26,1356,1
468,2,1,27,663,1
468,2,1,28,553,1
468,2,1,29,370,1
468,2,1,30,433,1
468,2,1,31,557,1
468,2,1,32,394,1
468,2,1,33,351,1
468,2,1,34,548,1
468,2,1,35,379,1
468,2,1,36,330,1
468,2,1,37,336,1
468,2,1,38,789,0
468,2,1,39,561,1
468,2,1,40,1078,0
468,2,2,1,1000,1
468,2,2,2,496,1
468,2,2,3,937,1
468,2,2,4,807,1
468,2,2,5,725,1
468,2,2,6,778,1
468,2,2,7,547,1
468,2,2,8,442,1
468,2,2,9,472,1
468,2,2,10,329,1
468,2,2,11,677,1
468,2,2,12,423,1
468,2,2,13,724,1
468,2,2,14,540,1
468,2,2,15,710,1
468,2,2,16,815,1
468,2,2,17,631,1
468,2,2,18,830,1
468,2,2,19,849,1
468,2,2,20,517,1
468,2,2,21,572,1
468,2,2,22,366,1
468,2,2,23,551,1
468,2,2,24,579,1
468,2,2,25,856,1
468,2,2,26,928,1
468,2,2,27,751,1
468,2,2,28,528,1
468,2,2,29,659,1
468,2,2,30,687,1
468,2,2,31,773,1
468,2,2,32,562,1
468,2,2,33,741,1
468,2,2,34,1108,0
468,2,2,35,1280,1
468,2,2,36,1222,1
468,2,2,37,426,1
468,2,2,38,651,1
468,2,2,39,390,1
468,2,2,40,535,1
504,2,1,1,507,1
504,2,1,2,479,1
504,2,1,3,517,1
504,2,1,4,503,1
504,2,1,5,598,1
504,2,1,6,515,1
504,2,1,7,417,1
504,2,1,8,419,1
504,2,1,9,511,1
504,2,1,10,531,1
504,2,1,11,543,1
504,2,1,12,448,1
504,2,1,13,543,1
504,2,1,14,614,1
504,2,1,15,482,1
504,2,1,16,494,1
504,2,1,17,563,1
504,2,1,18,659,1
504,2,1,19,578,1
504,2,1,20,467,1
504,2,1,21,526,1
504,2,1,22,684,1
504,2,1,23,624,1
504,2,1,24,650,1
504,2,1,25,483,1
504,2,1,26,524,1
504,2,1,27,582,1
504,2,1,28,528,1
504,2,1,29,536,1
504,2,1,30,497,1
504,2,1,31,496,1
504,2,1,32,551,1
504,2,1,33,493,1
504,2,1,34,519,1
504,2,1,35,647,1
504,2,1,36,508,1
504,2,1,37,447,1
504,2,1,38,504,1
504,2,1,39,586,1
504,2,1,40,517,1
504,2,2,1,668,1
504,2,2,2,502,1
504,2,2,3,587,1
504,2,2,4,964,1
504,2,2,5,697,1
504,2,2,6,682,1
504,2,2,7,553,1
504,2,2,8,636,1
504,2,2,9,618,1
504,2,2,10,868,1
504,2,2,11,664,1
504,2,2,12,1031,1
504,2,2,13,595,1
504,2,2,14,654,1
504,2,2,15,591,1
504,2,2,16,529,1
504,2,2,17,491,1
504,2,2,18,630,1
504,2,2,19,542,1
504,2,2,20,511,1
504,2,2,21,564,1
504,2,2,22,846,1
504,2,2,23,555,1
504,2,2,24,658,1
504,2,2,25,1307,0
504,2,2,26,701,1
504,2,2,27,593,1
504,2,2,28,887,1
504,2,2,29,487,1
504,2,2,30,556,1
504,2,2,31,657,1
504,2,2,32,568,1
504,2,2,33,616,1
504,2,2,34,1274,0
504,2,2,35,705,1
504,2,2,36,792,1
504,2,2,37,573,1
504,2,2,38,779,1
504,2,2,39,479,1
504,2,2,40,705,1
478,2,1,1,684,1
478,2,1,2,567,1
478,2,1,3,569,1
478,2,1,4,407,1
478,2,1,5,475,1
478,2,1,6,481,1
478,2,1,7,816,0
478,2,1,8,440,1
478,2,1,9,400,1
478,2,1,10,479,1
478,2,1,11,721,0
478,2,1,12,507,1
478,2,1,13,548,1
478,2,1,14,482,1
478,2,1,15,513,1
478,2,1,16,512,1
478,2,1,17,430,1
478,2,1,18,527,1
478,2,1,19,559,1
478,2,1,20,633,1
478,2,1,21,478,1
478,2,1,22,404,1
478,2,1,23,427,1
478,2,1,24,461,1
478,2,1,25,503,1
478,2,1,26,729,0
478,2,1,27,493,1
478,2,1,28,455,1
478,2,1,29,428,1
478,2,1,30,503,1
478,2,1,31,390,1
478,2,1,32,644,1
478,2,1,33,565,1
478,2,1,34,515,1
478,2,1,35,496,1
478,2,1,36,557,1
478,2,1,37,365,1
478,2,1,38,289,1
478,2,1,39,459,1
478,2,1,40,450,1
478,2,2,1,1429,1
478,2,2,2,661,1
478,2,2,3,634,1
478,2,2,4,745,0
478,2,2,5,556,1
478,2,2,6,1109,1
478,2,2,7,763,1
478,2,2,8,557,1
478,2,2,9,611,1
478,2,2,10,915,1
478,2,2,11,635,1
478,2,2,12,862,1
478,2,2,13,501,1
478,2,2,14,846,1
478,2,2,15,740,0
478,2,2,16,723,1
478,2,2,17,516,1
478,2,2,18,570,1
478,2,2,19,728,1
478,2,2,20,536,1
478,2,2,21,574,1
478,2,2,22,724,1
478,2,2,23,505,1
478,2,2,24,508,1
478,2,2,25,496,1
478,2,2,26,401,1
478,2,2,27,575,1
478,2,2,28,1031,0
478,2,2,29,747,1
478,2,2,30,501,1
478,2,2,31,439,1
478,2,2,32,811,0
478,2,2,33,751,1
478,2,2,34,538,1
478,2,2,35,731,1
478,2,2,36,678,1
478,2,2,37,512,1
478,2,2,38,841,0
478,2,2,39,516,1
478,2,2,40,956,1
495,1,1,1,618,1
495,1,1,2,494,1
495,1,1,3,477,1
495,1,1,4,515,1
495,1,1,5,421,1
495,1,1,6,415,1
495,1,1,7,462,1
495,1,1,8,432,1
495,1,1,9,406,1
495,1,1,10,692,1
495,1,1,11,455,1
495,1,1,12,439,1
495,1,1,13,357,1
495,1,1,14,434,1
495,1,1,15,355,1
495,1,1,16,460,1
495,1,1,17,472,1
495,1,1,18,471,1
495,1,1,19,426,1
495,1,1,20,676,1
495,1,1,21,523,1
495,1,1,22,381,1
495,1,1,23,583,1
495,1,1,24,460,1
495,1,1,25,527,1
495,1,1,26,543,1
495,1,1,27,434,1
495,1,1,28,410,1
495,1,1,29,503,1
495,1,1,30,472,1
495,1,1,31,459,1
495,1,1,32,520,1
495,1,1,33,397,1
495,1,1,34,464,1
495,1,1,35,382,1
495,1,1,36,487,1
495,1,1,37,394,1
495,1,1,38,471,1
495,1,1,39,509,1
495,1,1,40,468,1
495,1,2,1,526,1
495,1,2,2,680,1
495,1,2,3,717,1
495,1,2,4,675,1
495,1,2,5,466,1
495,1,2,6,724,1
495,1,2,7,645,1
495,1,2,8,560,1
495,1,2,9,493,1
495,1,2,10,727,1
495,1,2,11,603,1
495,1,2,12,604,1
495,1,2,13,569,1
495,1,2,14,732,1
495,1,2,15,448,1
495,1,2,16,595,1
495,1,2,17,584,1
495,1,2,18,682,1
495,1,2,19,556,1
495,1,2,20,589,1
495,1,2,21,392,1
495,1,2,22,623,1
495,1,2,23,438,1
495,1,2,24,747,1
495,1,2,25,566,1
495,1,2,26,930,1
495,1,2,27,604,1
495,1,2,28,676,1
495,1,2,29,584,1
495,1,2,30,615,1
495,1,2,31,590,1
495,1,2,32,448,1
495,1,2,33,505,1
495,1,2,34,1009,1
495,1,2,35,528,1
495,1,2,36,588,1
495,1,2,37,629,1
495,1,2,38,758,1
495,1,2,39,645,1
495,1,2,40,657,1
485,1,1,1,969,1
485,1,1,2,576,1
485,1,1,3,511,1
485,1,1,4,469,1
485,1,1,5,480,1
485,1,1,6,455,1
485,1,1,7,444,1
485,1,1,8,496,1
485,1,1,9,495,1
485,1,1,10,449,1
485,1,1,11,502,1
485,1,1,12,500,1
485,1,1,13,474,1
485,1,1,14,482,1
485,1,1,15,445,1
485,1,1,16,450,1
485,1,1,17,426,1
485,1,1,18,451,1
485,1,1,19,456,1
485,1,1,20,436,1
485,1,1,21,397,1
485,1,1,22,416,1
485,1,1,23,462,1
485,1,1,24,421,1
485,1,1,25,411,1
485,1,1,26,433,1
485,1,1,27,426,1
485,1,1,28,431,1
485,1,1,29,397,1
485,1,1,30,608,1
485,1,1,31,438,1
485,1,1,32,390,1
485,1,1,33,401,1
485,1,1,34,415,1
485,1,1,35,469,1
485,1,1,36,456,1
485,1,1,37,404,1
485,1,1,38,375,1
485,1,1,39,387,1
485,1,1,40,462,1
485,1,2,1,889,1
485,1,2,2,527,1
485,1,2,3,600,1
485,1,2,4,686,1
485,1,2,5,693,1
485,1,2,6,599,1
485,1,2,7,609,1
485,1,2,8,1099,1
485,1,2,9,544,1
485,1,2,10,633,1
485,1,2,11,541,1
485,1,2,12,682,1
485,1,2,13,537,1
485,1,2,14,694,1
485,1,2,15,560,1
485,1,2,16,1519,0
485,1,2,17,655,1
485,1,2,18,591,1
485,1,2,19,706,1
485,1,2,20,779,1
485,1,2,21,522,1
485,1,2,22,606,1
485,1,2,23,548,1
485,1,2,24,521,1
485,1,2,25,662,1
485,1,2,26,586,1
485,1,2,27,472,1
485,1,2,28,1240,0
485,1,2,29,887,1
485,1,2,30,549,1
485,1,2,31,541,1
485,1,2,32,778,1
485,1,2,33,541,1
485,1,2,34,638,1
485,1,2,35,534,1
485,1,2,36,627,1
485,1,2,37,612,1
485,1,2,38,533,1
485,1,2,39,647,1
485,1,2,40,535,1
479,1,1,1,650,1
479,1,1,2,672,1
479,1,1,3,428,1
479,1,1,4,431,1
479,1,1,5,518,1
479,1,1,6,1412,0
479,1,1,7,612,1
479,1,1,8,561,1
479,1,1,9,533,1
479,1,1,10,1126,0
479,1,1,11,697,1
479,1,1,12,648,1
479,1,1,13,449,1
479,1,1,14,530,1
479,1,1,15,512,1
479,1,1,16,516,1
479,1,1,17,580,1
479,1,1,18,575,1
479,1,1,19,547,1
479,1,1,20,703,1
479,1,1,21,535,1
479,1,1,22,490,1
479,1,1,23,624,1
479,1,1,24,933,1
479,1,1,25,596,1
479,1,1,26,849,1
479,1,1,27,648,1
479,1,1,28,635,1
479,1,1,29,751,1
479,1,1,30,604,1
479,1,1,31,473,1
479,1,1,32,514,1
479,1,1,33,692,1
479,1,1,34,1310,1
479,1,1,35,544,1
479,1,1,36,449,1
479,1,1,37,420,1
479,1,1,38,437,1
479,1,1,39,528,1
479,1,1,40,801,1
479,1,2,1,835,1
479,1,2,2,559,1
479,1,2,3,455,1
479,1,2,4,663,1
479,1,2,5,634,1
479,1,2,6,865,1
479,1,2,7,582,1
479,1,2,8,698,1
479,1,2,9,564,1
479,1,2,10,589,1
479,1,2,11,600,1
479,1,2,12,765,1
479,1,2,13,660,1
479,1,2,14,605,1
479,1,2,15,620,1
479,1,2,16,697,1
479,1,2,17,584,1
479,1,2,18,569,1
479,1,2,19,663,1
479,1,2,20,1355,1
479,1,2,21,689,1
479,1,2,22,748,1
479,1,2,23,843,1
479,1,2,24,489,1
479,1,2,25,575,0
479,1,2,26,746,1
479,1,2,27,572,1
479,1,2,28,729,1
479,1,2,29,442,1
479,1,2,30,490,1
479,1,2,31,420,1
479,1,2,32,996,0
479,1,2,33,723,1
479,1,2,34,936,1
479,1,2,35,1293,1
479,1,2,36,576,1
479,1,2,37,470,1
479,1,2,38,472,1
479,1,2,39,444,1
479,1,2,40,459,1
477,1,1,1,801,1
477,1,1,2,589,1
477,1,1,3,608,1
477,1,1,4,548,1
477,1,1,5,609,1
477,1,1,6,581,1
477,1,1,7,505,1
477,1,1,8,568,1
477,1,1,9,509,1
477,1,1,10,1348,0
477,1,1,11,745,1
477,1,1,12,943,1
477,1,1,13,613,1
477,1,1,14,456,1
477,1,1,15,665,1
477,1,1,16,538,1
477,1,1,17,552,1
477,1,1,18,893,0
477,1,1,19,636,1
477,1,1,20,590,1
477,1,1,21,570,1
477,1,1,22,702,1
477,1,1,23,542,1
477,1,1,24,771,1
477,1,1,25,912,1
477,1,1,26,855,1
477,1,1,27,584,1
477,1,1,28,532,1
477,1,1,29,506,1
477,1,1,30,577,1
477,1,1,31,638,1
477,1,1,32,855,1
477,1,1,33,1016,1
477,1,1,34,723,1
477,1,1,35,985,1
477,1,1,36,765,1
477,1,1,37,730,1
477,1,1,38,577,1
477,1,1,39,677,1
477,1,1,40,662,1
477,1,2,1,992,1
477,1,2,2,1068,1
477,1,2,3,845,1
477,1,2,4,710,1
477,1,2,5,718,1
477,1,2,6,1284,1
477,1,2,7,772,1
477,1,2,8,1160,0
477,1,2,9,893,1
477,1,2,10,884,1
477,1,2,11,756,1
477,1,2,12,1145,1
477,1,2,13,871,1
477,1,2,14,783,1
477,1,2,15,763,1
477,1,2,16,696,1
477,1,2,17,640,1
477,1,2,18,610,1
477,1,2,19,749,1
477,1,2,20,818,1
477,1,2,21,909,1
477,1,2,22,884,1
477,1,2,23,732,1
477,1,2,24,682,1
477,1,2,25,730,1
477,1,2,26,625,1
477,1,2,27,779,1
477,1,2,28,895,1
477,1,2,29,1055,1
477,1,2,30,720,1
477,1,2,31,919,1
477,1,2,32,1245,1
477,1,2,33,999,1
477,1,2,34,834,1
477,1,2,35,692,1
477,1,2,36,756,1
477,1,2,37,713,1
477,1,2,38,776,1
477,1,2,39,908,1
477,1,2,40,788,1
473,1,1,1,855,1
473,1,1,2,616,1
473,1,1,3,530,1
473,1,1,4,822,1
473,1,1,5,528,1
473,1,1,6,614,1
473,1,1,7,914,1
473,1,1,8,803,1
473,1,1,9,853,1
473,1,1,10,653,1
473,1,1,11,711,1
473,1,1,12,672,1
473,1,1,13,1266,0
473,1,1,14,1108,1
473,1,1,15,475,1
473,1,1,16,510,1
473,1,1,17,767,1
473,1,1,18,767,1
473,1,1,19,528,1
473,1,1,20,757,1
473,1,1,21,585,1
473,1,1,22,607,1
473,1,1,23,634,1
473,1,1,24,653,1
473,1,1,25,942,1
473,1,1,26,624,1
473,1,1,27,644,1
473,1,1,28,586,1
473,1,1,29,562,1
473,1,1,30,702,1
473,1,1,31,578,1
473,1,1,32,529,1
473,1,1,33,459,1
473,1,1,34,612,1
473,1,1,35,483,1
473,1,1,36,657,1
473,1,1,37,752,1
473,1,1,38,881,1
473,1,1,39,627,1
473,1,1,40,923,1
473,1,2,1,1539,1
473,1,2,2,767,1
473,1,2,3,911,1
473,1,2,4,771,1
473,1,2,5,791,1
473,1,2,6,725,1
473,1,2,7,690,1
473,1,2,8,796,1
473,1,2,9,974,1
473,1,2,10,621,1
473,1,2,11,869,1
473,1,2,12,664,1
473,1,2,13,703,1
473,1,2,14,688,1
473,1,2,15,590,1
473,1,2,16,501,1
473,1,2,17,911,1
473,1,2,18,663,1
473,1,2,19,510,1
473,1,2,20,803,1
473,1,2,21,895,1
473,1,2,22,1260,1
473,1,2,23,945,1
473,1,2,24,828,1
473,1,2,25,765,1
473,1,2,26,708,1
473,1,2,27,771,1
473,1,2,28,887,1
473,1,2,29,598,1
473,1,2,30,683,1
473,1,2,31,628,1
473,1,2,32,548,1
473,1,2,33,609,1
473,1,2,34,842,1
473,1,2,35,511,1
473,1,2,36,671,1
473,1,2,37,746,1
473,1,2,38,718,1
473,1,2,39,1326,1
473,1,2,40,630,1
470,2,1,1,771,1
470,2,1,2,666,1
470,2,1,3,501,1
470,2,1,4,414,1
470,2,1,5,934,0
470,2,1,6,414,1
470,2,1,7,370,1
470,2,1,8,348,1
470,2,1,9,341,1
470,2,1,10,413,1
470,2,1,11,667,1
470,2,1,12,387,1
470,2,1,13,472,1
470,2,1,14,610,1
470,2,1,15,424,1
470,2,1,16,572,1
470,2,1,17,448,1
470,2,1,18,579,1
470,2,1,19,405,1
470,2,1,20,395,1
470,2,1,21,394,1
470,2,1,22,444,1
470,2,1,23,411,1
470,2,1,24,403,1
470,2,1,25,431,1
470,2,1,26,376,1
470,2,1,27,405,1
470,2,1,28,741,1
470,2,1,29,509,1
470,2,1,30,379,1
470,2,1,31,380,1
470,2,1,32,407,1
470,2,1,33,353,1
470,2,1,34,384,1
470,2,1,35,571,1
470,2,1,36,447,1
470,2,1,37,430,1
470,2,1,38,421,1
470,2,1,39,395,1
470,2,1,40,417,1
470,2,2,1,1061,1
470,2,2,2,1201,1
470,2,2,3,1436,1
470,2,2,4,1412,1
470,2,2,5,933,1
470,2,2,6,819,1
470,2,2,7,710,1
470,2,2,8,660,1
470,2,2,9,597,1
470,2,2,10,521,1
470,2,2,11,415,1
470,2,2,12,651,1
470,2,2,13,478,1
470,2,2,14,682,1
470,2,2,15,395,1
470,2,2,16,675,1
470,2,2,17,475,1
470,2,2,18,482,1
470,2,2,19,417,1
470,2,2,20,590,1
470,2,2,21,532,1
470,2,2,22,523,1
470,2,2,23,501,1
470,2,2,24,531,1
470,2,2,25,562,1
470,2,2,26,499,1
470,2,2,27,498,1
470,2,2,28,622,1
470,2,2,29,511,1
470,2,2,30,520,1
470,2,2,31,546,1
470,2,2,32,692,1
470,2,2,33,482,1
470,2,2,34,1026,0
470,2,2,35,541,1
470,2,2,36,699,1
470,2,2,37,548,1
470,2,2,38,605,1
470,2,2,39,523,1
470,2,2,40,531,1
464,2,1,1,1035,1
464,2,1,2,495,1
464,2,1,3,498,1
464,2,1,4,441,1
464,2,1,5,420,1
464,2,1,6,463,1
464,2,1,7,510,1
464,2,1,8,476,1
464,2,1,9,480,1
464,2,1,10,440,1
464,2,1,11,436,1
464,2,1,12,380,1
464,2,1,13,430,1
464,2,1,14,443,1
464,2,1,15,413,1
464,2,1,16,587,1
464,2,1,17,429,1
464,2,1,18,515,1
464,2,1,19,443,1
464,2,1,20,393,1
464,2,1,21,449,1
464,2,1,22,393,1
464,2,1,23,420,1
464,2,1,24,465,1
464,2,1,25,463,1
464,2,1,26,494,1
464,2,1,27,514,1
464,2,1,28,430,1
464,2,1,29,418,1
464,2,1,30,424,1
464,2,1,31,523,1
464,2,1,32,616,1
464,2,1,33,622,1
464,2,1,34,494,1
464,2,1,35,582,1
464,2,1,36,511,1
464,2,1,37,424,1
464,2,1,38,420,1
464,2,1,39,523,1
464,2,1,40,470,1
464,2,2,1,1513,1
464,2,2,2,605,1
464,2,2,3,1186,1
464,2,2,4,856,1
464,2,2,5,573,1
464,2,2,6,464,1
464,2,2,7,695,1
464,2,2,8,534,1
464,2,2,9,526,1
464,2,2,10,505,1
464,2,2,11,516,1
464,2,2,12,541,1
464,2,2,13,483,1
464,2,2,14,787,1
464,2,2,15,671,1
464,2,2,16,949,1
464,2,2,17,711,1
464,2,2,18,586,1
464,2,2,19,519,1
464,2,2,20,545,1
464,2,2,21,555,1
464,2,2,22,451,1
464,2,2,23,598,1
464,2,2,24,671,1
464,2,2,25,755,1
464,2,2,26,764,1
464,2,2,27,743,1
464,2,2,28,1298,1
464,2,2,29,911,1
464,2,2,30,1030,1
464,2,2,31,771,1
464,2,2,32,924,1
464,2,2,33,625,1
464,2,2,34,651,1
464,2,2,35,713,1
464,2,2,36,562,1
464,2,2,37,645,1
464,2,2,38,665,1
464,2,2,39,592,1
464,2,2,40,640,1
458,2,1,1,534,1
458,2,1,2,426,1
458,2,1,3,364,1
458,2,1,4,298,1
458,2,1,5,422,1
458,2,1,6,568,1
458,2,1,7,455,1
458,2,1,8,654,1
458,2,1,9,725,1
458,2,1,10,693,1
458,2,1,11,397,1
458,2,1,12,505,1
458,2,1,13,393,1
458,2,1,14,500,1
458,2,1,15,366,1
458,2,1,16,295,1
458,2,1,17,413,1
458,2,1,18,420,1
458,2,1,19,411,1
458,2,1,20,459,1
458,2,1,21,437,1
458,2,1,22,428,1
458,2,1,23,416,1
458,2,1,24,345,1
458,2,1,25,323,1
458,2,1,26,374,1
458,2,1,27,1070,0
458,2,1,28,586,1
458,2,1,29,539,1
458,2,1,30,337,1
458,2,1,31,412,1
458,2,1,32,453,1
458,2,1,33,443,1
458,2,1,34,372,1
458,2,1,35,458,1
458,2,1,36,372,1
458,2,1,37,453,1
458,2,1,38,353,1
458,2,1,39,413,1
458,2,1,40,403,1
458,2,2,1,510,1
458,2,2,2,354,1
458,2,2,3,403,1
458,2,2,4,461,1
458,2,2,5,455,1
458,2,2,6,461,1
458,2,2,7,389,1
458,2,2,8,430,1
458,2,2,9,375,1
458,2,2,10,387,1
458,2,2,11,412,1
458,2,2,12,694,1
458,2,2,13,498,1
458,2,2,14,428,1
458,2,2,15,781,0
458,2,2,16,619,1
458,2,2,17,1043,0
458,2,2,18,728,1
458,2,2,19,576,1
458,2,2,20,458,1
458,2,2,21,860,0
458,2,2,22,991,1
458,2,2,23,439,1
458,2,2,24,470,1
458,2,2,25,614,1
458,2,2,26,601,1
458,2,2,27,546,1
458,2,2,28,549,1
458,2,2,29,535,1
458,2,2,30,573,1
458,2,2,31,782,0
458,2,2,32,513,1
458,2,2,33,440,1
458,2,2,34,566,1
458,2,2,35,567,1
458,2,2,36,695,1
458,2,2,37,547,1
458,2,2,38,564,1
458,2,2,39,411,1
458,2,2,40,388,1
455,1,1,1,716,1
455,1,1,2,906,1
455,1,1,3,795,1
455,1,1,4,766,1
455,1,1,5,726,1
455,1,1,6,1048,1
455,1,1,7,771,1
455,1,1,8,776,1
455,1,1,9,968,1
455,1,1,10,911,1
455,1,1,11,696,1
455,1,1,12,615,1
455,1,1,13,833,1
455,1,1,14,766,1
455,1,1,15,662,1
455,1,1,16,738,1
455,1,1,17,715,1
455,1,1,18,760,1
455,1,1,19,809,1
455,1,1,20,657,1
455,1,1,21,539,1
455,1,1,22,480,1
455,1,1,23,1064,1
455,1,1,24,555,1
455,1,1,25,541,1
455,1,1,26,597,1
455,1,1,27,574,1
455,1,1,28,539,1
455,1,1,29,689,1
455,1,1,30,512,1
455,1,1,31,533,1
455,1,1,32,438,1
455,1,1,33,612,1
455,1,1,34,543,1
455,1,1,35,525,1
455,1,1,36,562,1
455,1,1,37,573,1
455,1,1,38,523,1
455,1,1,39,535,1
455,1,1,40,618,1
455,1,2,1,765,1
455,1,2,2,855,1
455,1,2,3,723,1
455,1,2,4,733,1
455,1,2,5,748,1
455,1,2,6,675,1
455,1,2,7,641,1
455,1,2,8,1872,0
455,1,2,9,1237,1
455,1,2,10,931,1
455,1,2,11,1028,1
455,1,2,12,888,1
455,1,2,13,675,1
455,1,2,14,592,1
455,1,2,15,703,1
455,1,2,16,1151,1
455,1,2,17,761,1
455,1,2,18,724,1
455,1,2,19,720,1
455,1,2,20,861,1
455,1,2,21,791,1
455,1,2,22,721,1
455,1,2,23,671,1
455,1,2,24,730,1
455,1,2,25,875,1
455,1,2,26,922,1
455,1,2,27,655,1
455,1,2,28,1788,0
455,1,2,29,782,1
455,1,2,30,762,1
455,1,2,31,672,1
455,1,2,32,530,1
455,1,2,33,726,1
455,1,2,34,702,1
455,1,2,35,722,1
455,1,2,36,705,1
455,1,2,37,710,1
455,1,2,38,846,1
455,1,2,39,787,1
455,1,2,40,821,1
465,1,1,1,2414,1
465,1,1,2,763,1
465,1,1,3,623,1
465,1,1,4,678,1
465,1,1,5,868,1
465,1,1,6,679,1
465,1,1,7,622,1
465,1,1,8,559,1
465,1,1,9,588,1
465,1,1,10,615,1
465,1,1,11,563,1
465,1,1,12,561,1
465,1,1,13,529,1
465,1,1,14,530,1
465,1,1,15,685,1
465,1,1,16,643,1
465,1,1,17,558,1
465,1,1,18,587,1
465,1,1,19,552,1
465,1,1,20,581,1
465,1,1,21,656,1
465,1,1,22,523,1
465,1,1,23,555,1
465,1,1,24,769,1
465,1,1,25,582,1
465,1,1,26,609,1
465,1,1,27,681,1
465,1,1,28,624,1
465,1,1,29,556,1
465,1,1,30,678,1
465,1,1,31,683,1
465,1,1,32,548,1
465,1,1,33,686,1
465,1,1,34,685,1
465,1,1,35,612,1
465,1,1,36,662,1
465,1,1,37,592,1
465,1,1,38,654,1
465,1,1,39,552,1
465,1,1,40,489,1
465,1,2,1,560,1
465,1,2,2,929,1
465,1,2,3,530,1
465,1,2,4,716,1
465,1,2,5,609,1
465,1,2,6,681,1
465,1,2,7,594,1
465,1,2,8,620,1
465,1,2,9,583,1
465,1,2,10,888,1
465,1,2,11,769,1
465,1,2,12,705,1
465,1,2,13,615,1
465,1,2,14,671,1
465,1,2,15,645,1
465,1,2,16,622,1
465,1,2,17,492,1
465,1,2,18,649,1
465,1,2,19,610,1
465,1,2,20,712,1
465,1,2,21,561,1
465,1,2,22,621,1
465,1,2,23,614,1
465,1,2,24,655,1
465,1,2,25,646,1
465,1,2,26,654,1
465,1,2,27,583,1
465,1,2,28,579,1
465,1,2,29,623,1
465,1,2,30,740,1
465,1,2,31,586,1
465,1,2,32,643,1
465,1,2,33,533,1
465,1,2,34,640,1
465,1,2,35,771,1
465,1,2,36,708,1
465,1,2,37,618,1
465,1,2,38,611,1
465,1,2,39,684,1
465,1,2,40,672,1
456,2,1,1,736,1
456,2,1,2,482,1
456,2,1,3,419,1
456,2,1,4,379,1
456,2,1,5,346,1
456,2,1,6,332,1
456,2,1,7,786,0
456,2,1,8,477,1
456,2,1,9,398,1
456,2,1,10,450,1
456,2,1,11,370,1
456,2,1,12,436,1
456,2,1,13,547,1
456,2,1,14,778,0
456,2,1,15,586,0
456,2,1,16,526,1
456,2,1,17,308,1
456,2,1,18,392,1
456,2,1,19,408,1
456,2,1,20,366,1
456,2,1,21,463,1
456,2,1,22,367,1
456,2,1,23,479,1
456,2,1,24,332,1
456,2,1,25,415,1
456,2,1,26,394,1
456,2,1,27,276,1
456,2,1,28,365,1
456,2,1,29,274,1
456,2,1,30,330,1
456,2,1,31,333,1
456,2,1,32,301,1
456,2,1,33,370,1
456,2,1,34,253,1
456,2,1,35,444,1
456,2,1,36,288,1
456,2,1,37,573,0
456,2,1,38,405,1
456,2,1,39,247,1
456,2,1,40,424,1
456,2,2,1,1252,1
456,2,2,2,1347,1
456,2,2,3,553,1
456,2,2,4,375,1
456,2,2,5,633,0
456,2,2,6,846,1
456,2,2,7,545,1
456,2,2,8,566,1
456,2,2,9,445,1
456,2,2,10,867,0
456,2,2,11,466,1
456,2,2,12,592,1
456,2,2,13,533,1
456,2,2,14,521,1
456,2,2,15,545,1
456,2,2,16,400,1
456,2,2,17,590,0
456,2,2,18,684,1
456,2,2,19,846,0
456,2,2,20,828,1
456,2,2,21,873,1
456,2,2,22,507,1
456,2,2,23,352,1
456,2,2,24,805,1
456,2,2,25,485,1
456,2,2,26,655,0
456,2,2,27,569,1
456,2,2,28,947,0
456,2,2,29,352,1
456,2,2,30,717,0
456,2,2,31,443,1
456,2,2,32,455,1
456,2,2,33,581,1
456,2,2,34,440,1
456,2,2,35,616,0
456,2,2,36,663,1
456,2,2,37,373,1
456,2,2,38,485,1
456,2,2,39,322,1
456,2,2,40,720,0
461,1,1,1,969,1
461,1,1,2,769,1
461,1,1,3,896,1
461,1,1,4,712,1
461,1,1,5,686,1
461,1,1,6,690,1
461,1,1,7,610,1
461,1,1,8,586,1
461,1,1,9,644,1
461,1,1,10,592,1
461,1,1,11,632,1
461,1,1,12,554,1
461,1,1,13,602,1
461,1,1,14,568,1
461,1,1,15,600,1
461,1,1,16,599,1
461,1,1,17,575,1
461,1,1,18,529,1
461,1,1,19,547,1
461,1,1,20,606,1
461,1,1,21,696,1
461,1,1,22,629,1
461,1,1,23,659,1
461,1,1,24,596,1
461,1,1,25,619,1
461,1,1,26,508,1
461,1,1,27,636,1
461,1,1,28,587,1
461,1,1,29,554,1
461,1,1,30,580,1
461,1,1,31,620,1
461,1,1,32,636,1
461,1,1,33,684,1
461,1,1,34,641,1
461,1,1,35,631,1
461,1,1,36,646,1
461,1,1,37,621,1
461,1,1,38,604,1
461,1,1,39,556,1
461,1,1,40,537,1
461,1,2,1,2670,1
461,1,2,2,1033,1
461,1,2,3,882,1
461,1,2,4,1023,1
461,1,2,5,753,1
461,1,2,6,721,1
461,1,2,7,718,1
461,1,2,8,783,1
461,1,2,9,827,1
461,1,2,10,784,1
461,1,2,11,663,1
461,1,2,12,790,1
461,1,2,13,686,1
461,1,2,14,821,1
461,1,2,15,906,1
461,1,2,16,807,1
461,1,2,17,703,1
461,1,2,18,851,1
461,1,2,19,769,1
461,1,2,20,722,1
461,1,2,21,916,1
461,1,2,22,832,1
461,1,2,23,717,1
461,1,2,24,719,1
461,1,2,25,766,1
461,1,2,26,891,1
461,1,2,27,728,1
461,1,2,28,692,1
461,1,2,29,796,1
461,1,2,30,756,1
461,1,2,31,701,1
461,1,2,32,729,1
461,1,2,33,932,1
461,1,2,34,790,1
461,1,2,35,700,1
461,1,2,36,712,1
461,1,2,37,688,1
461,1,2,38,673,1
461,1,2,39,610,1
461,1,2,40,764,1
463,1,1,1,548,1
463,1,1,2,535,1
463,1,1,3,1989,0
463,1,1,4,991,1
463,1,1,5,446,1
463,1,1,6,504,1
463,1,1,7,581,1
463,1,1,8,436,1
463,1,1,9,386,1
463,1,1,10,521,1
463,1,1,11,376,1
463,1,1,12,419,1
463,1,1,13,552,1
463,1,1,14,487,1
463,1,1,15,386,1
463,1,1,16,541,1
463,1,1,17,583,1
463,1,1,18,1344,0
463,1,1,19,429,1
463,1,1,20,350,1
463,1,1,21,586,1
463,1,1,22,416,1
463,1,1,23,434,1
463,1,1,24,498,1
463,1,1,25,1113,0
463,1,1,26,494,1
463,1,1,27,687,1
463,1,1,28,577,1
463,1,1,29,602,1
463,1,1,30,480,1
463,1,1,31,491,1
463,1,1,32,622,1
463,1,1,33,509,1
463,1,1,34,394,1
463,1,1,35,488,1
463,1,1,36,401,1
463,1,1,37,421,1
463,1,1,38,479,1
463,1,1,39,442,1
463,1,1,40,474,1
463,1,2,1,587,1
463,1,2,2,537,1
463,1,2,3,602,1
463,1,2,4,900,1
463,1,2,5,716,1
463,1,2,6,801,1
463,1,2,7,681,1
463,1,2,8,688,1
463,1,2,9,684,1
463,1,2,10,971,1
463,1,2,11,574,1
463,1,2,12,668,1
463,1,2,13,666,1
463,1,2,14,670,1
463,1,2,15,565,1
463,1,2,16,451,1
463,1,2,17,576,1
463,1,2,18,1491,0
463,1,2,19,1137,1
463,1,2,20,671,1
463,1,2,21,713,1
463,1,2,22,641,1
463,1,2,23,488,1
463,1,2,24,1016,0
463,1,2,25,839,1
463,1,2,26,649,1
463,1,2,27,617,1
463,1,2,28,527,1
463,1,2,29,761,1
463,1,2,30,1177,0
463,1,2,31,774,1
463,1,2,32,514,1
463,1,2,33,707,1
463,1,2,34,536,1
463,1,2,35,697,1
463,1,2,36,775,1
463,1,2,37,800,1
463,1,2,38,479,1
463,1,2,39,404,1
463,1,2,40,438,1
442,2,1,1,1970,1
442,2,1,2,771,1
442,2,1,3,650,1
442,2,1,4,600,1
442,2,1,5,563,1
442,2,1,6,865,1
442,2,1,7,882,1
442,2,1,8,643,1
442,2,1,9,674,1
442,2,1,10,662,1
442,2,1,11,735,1
442,2,1,12,532,1
442,2,1,13,521,1
442,2,1,14,643,1
442,2,1,15,760,1
442,2,1,16,637,1
442,2,1,17,562,1
442,2,1,18,610,1
442,2,1,19,566,1
442,2,1,20,1113,1
442,2,1,21,480,1
442,2,1,22,568,1
442,2,1,23,627,1
442,2,1,24,468,1
442,2,1,25,519,1
442,2,1,26,439,1
442,2,1,27,783,1
442,2,1,28,492,1
442,2,1,29,474,1
442,2,1,30,594,1
442,2,1,31,552,1
442,2,1,32,556,1
442,2,1,33,578,1
442,2,1,34,469,1
442,2,1,35,909,1
442,2,1,36,484,1
442,2,1,37,517,1
442,2,1,38,492,1
442,2,1,39,470,1
442,2,1,40,539,1
442,2,2,1,1883,1
442,2,2,2,1370,1
442,2,2,3,831,1
442,2,2,4,918,1
442,2,2,5,1085,1
442,2,2,6,1006,1
442,2,2,7,953,1
442,2,2,8,813,1
442,2,2,9,874,1
442,2,2,10,1186,1
442,2,2,11,1010,1
442,2,2,12,924,1
442,2,2,13,845,1
442,2,2,14,914,1
442,2,2,15,742,1
442,2,2,16,860,1
442,2,2,17,909,1
442,2,2,18,818,1
442,2,2,19,815,1
442,2,2,20,1216,1
442,2,2,21,1177,1
442,2,2,22,663,1
442,2,2,23,644,1
442,2,2,24,969,1
442,2,2,25,1119,1
442,2,2,26,961,1
442,2,2,27,1097,1
442,2,2,28,840,1
442,2,2,29,750,1
442,2,2,30,733,1
442,2,2,31,844,1
442,2,2,32,1329,1
442,2,2,33,832,1
442,2,2,34,928,1
442,2,2,35,834,1
442,2,2,36,1136,1
442,2,2,37,767,1
442,2,2,38,717,1
442,2,2,39,735,1
442,2,2,40,997,1
447,1,1,1,978,1
447,1,1,2,1396,1
447,1,1,3,1009,1
447,1,1,4,750,1
447,1,1,5,455,1
447,1,1,6,681,1
447,1,1,7,521,1
447,1,1,8,559,1
447,1,1,9,616,1
447,1,1,10,559,1
447,1,1,11,696,1
447,1,1,12,697,1
447,1,1,13,1073,1
447,1,1,14,745,1
447,1,1,15,687,1
447,1,1,16,587,1
447,1,1,17,548,1
447,1,1,18,865,1
447,1,1,19,617,1
447,1,1,20,570,1
447,1,1,21,505,1
447,1,1,22,514,1
447,1,1,23,721,1
447,1,1,24,743,1
447,1,1,25,658,1
447,1,1,26,943,1
447,1,1,27,519,1
447,1,1,28,531,1
447,1,1,29,594,1
447,1,1,30,553,1
447,1,1,31,605,1
447,1,1,32,395,1
447,1,1,33,655,1
447,1,1,34,534,1
447,1,1,35,544,1
447,1,1,36,470,1
447,1,1,37,456,1
447,1,1,38,626,1
447,1,1,39,450,1
447,1,1,40,531,1
447,1,2,1,701,1
447,1,2,2,1061,1
447,1,2,3,712,1
447,1,2,4,700,1
447,1,2,5,1176,1
447,1,2,6,865,1
447,1,2,7,756,1
447,1,2,8,799,1
447,1,2,9,753,1
447,1,2,10,767,1
447,1,2,11,653,1
447,1,2,12,943,1
447,1,2,13,741,1
447,1,2,14,805,1
447,1,2,15,858,1
447,1,2,16,830,1
447,1,2,17,973,1
447,1,2,18,798,1
447,1,2,19,1015,1
447,1,2,20,1023,1
447,1,2,21,666,1
447,1,2,22,562,1
447,1,2,23,1027,1
447,1,2,24,832,1
447,1,2,25,724,1
447,1,2,26,804,1
447,1,2,27,748,1
447,1,2,28,705,1
447,1,2,29,746,1
447,1,2,30,751,1
447,1,2,31,762,1
447,1,2,32,693,1
447,1,2,33,946,1
447,1,2,34,561,1
447,1,2,35,779,1
447,1,2,36,885,1
447,1,2,37,601,1
447,1,2,38,524,1
447,1,2,39,603,1
447,1,2,40,588,1
448,2,1,1,611,1
448,2,1,2,521,1
448,2,1,3,505,1
448,2,1,4,354,1
448,2,1,5,401,1
448,2,1,6,471,1
448,2,1,7,401,1
448,2,1,8,422,1
448,2,1,9,386,1
448,2,1,10,424,1
448,2,1,11,396,1
448,2,1,12,433,1
448,2,1,13,645,1
448,2,1,14,745,0
448,2,1,15,433,1
448,2,1,16,453,1
448,2,1,17,376,1
448,2,1,18,390,1
448,2,1,19,484,1
448,2,1,20,486,1
448,2,1,21,408,1
448,2,1,22,596,0
448,2,1,23,523,1
448,2,1,24,635,1
448,2,1,25,567,1
448,2,1,26,591,1
448,2,1,27,540,1
448,2,1,28,444,1
448,2,1,29,360,1
448,2,1,30,438,1
448,2,1,31,490,0
448,2,1,32,707,1
448,2,1,33,365,1
448,2,1,34,387,1
448,2,1,35,505,1
448,2,1,36,483,1
448,2,1,37,396,1
448,2,1,38,665,0
448,2,1,39,604,0
448,2,1,40,560,1
448,2,2,1,399,1
448,2,2,2,1364,1
448,2,2,3,557,1
448,2,2,4,772,1
448,2,2,5,572,1
448,2,2,6,586,0
448,2,2,7,472,1
448,2,2,8,418,1
448,2,2,9,520,1
448,2,2,10,511,1
448,2,2,11,481,1
448,2,2,12,651,1
448,2,2,13,510,1
448,2,2,14,640,1
448,2,2,15,604,1
448,2,2,16,457,1
448,2,2,17,573,1
448,2,2,18,1035,0
448,2,2,19,544,1
448,2,2,20,552,1
448,2,2,21,599,1
448,2,2,22,652,1
448,2,2,23,400,1
448,2,2,24,413,1
448,2,2,25,497,1
448,2,2,26,883,0
448,2,2,27,565,1
448,2,2,28,732,1
448,2,2,29,756,1
448,2,2,30,572,1
448,2,2,31,523,1
448,2,2,32,795,1
448,2,2,33,601,1
448,2,2,34,839,0
448,2,2,35,563,1
448,2,2,36,794,0
448,2,2,37,504,1
448,2,2,38,761,1
448,2,2,39,857,0
448,2,2,40,972,0
449,1,1,1,444,1
449,1,1,2,370,1
449,1,1,3,497,1
449,1,1,4,513,1
449,1,1,5,505,1
449,1,1,6,477,1
449,1,1,7,386,1
449,1,1,8,423,1
449,1,1,9,465,1
449,1,1,10,479,1
449,1,1,11,437,1
449,1,1,12,356,1
449,1,1,13,1009,0
449,1,1,14,418,1
449,1,1,15,469,1
449,1,1,16,817,0
449,1,1,17,384,1
449,1,1,18,337,1
449,1,1,19,436,1
449,1,1,20,425,1
449,1,1,21,413,1
449,1,1,22,361,1
449,1,1,23,367,1
449,1,1,24,543,1
449,1,1,25,792,0
449,1,1,26,439,1
449,1,1,27,437,1
449,1,1,28,408,1
449,1,1,29,497,1
449,1,1,30,552,1
449,1,1,31,722,1
449,1,1,32,472,1
449,1,1,33,464,1
449,1,1,34,513,1
449,1,1,35,427,1
449,1,1,36,502,1
449,1,1,37,751,0
449,1,1,38,388,1
449,1,1,39,507,1
449,1,1,40,567,1
449,1,2,1,846,1
449,1,2,2,783,0
449,1,2,3,677,1
449,1,2,4,633,1
449,1,2,5,726,1
449,1,2,6,622,1
449,1,2,7,628,1
449,1,2,8,742,1
449,1,2,9,508,1
449,1,2,10,792,1
449,1,2,11,531,1
449,1,2,12,640,1
449,1,2,13,521,1
449,1,2,14,676,1
449,1,2,15,709,1
449,1,2,16,720,1
449,1,2,17,537,1
449,1,2,18,692,1
449,1,2,19,436,1
449,1,2,20,471,1
449,1,2,21,777,1
449,1,2,22,945,1
449,1,2,23,624,1
449,1,2,24,559,1
449,1,2,25,583,1
449,1,2,26,619,1
449,1,2,27,493,1
449,1,2,28,624,1
449,1,2,29,756,1
449,1,2,30,651,1
449,1,2,31,648,1
449,1,2,32,673,1
449,1,2,33,669,1
449,1,2,34,822,1
449,1,2,35,562,1
449,1,2,36,858,0
449,1,2,37,685,1
449,1,2,38,627,1
449,1,2,39,473,1
449,1,2,40,537,1
439,1,1,1,588,1
439,1,1,2,464,1
439,1,1,3,505,1
439,1,1,4,424,1
439,1,1,5,354,1
439,1,1,6,505,1
439,1,1,7,368,1
439,1,1,8,349,1
439,1,1,9,450,1
439,1,1,10,433,1
439,1,1,11,386,1
439,1,1,12,321,1
439,1,1,13,448,1
439,1,1,14,514,1
439,1,1,15,544,1
439,1,1,16,543,1
439,1,1,17,501,1
439,1,1,18,837,1
439,1,1,19,503,1
439,1,1,20,1109,1
439,1,1,21,1150,1
439,1,1,22,531,1
439,1,1,23,881,1
439,1,1,24,586,1
439,1,1,25,1118,1
439,1,1,26,1181,1
439,1,1,27,762,1
439,1,1,28,767,1
439,1,1,29,1826,1
439,1,1,30,622,1
439,1,1,31,489,1
439,1,1,32,1513,1
439,1,1,33,617,1
439,1,1,34,1379,1
439,1,1,35,1054,1
439,1,1,36,577,1
439,1,1,37,1342,1
439,1,1,38,610,1
439,1,1,39,479,1
439,1,1,40,534,1
439,1,2,1,2978,1
439,1,2,2,2357,0
439,1,2,3,1403,1
439,1,2,4,495,1
439,1,2,5,518,1
439,1,2,6,1197,1
439,1,2,7,626,1
439,1,2,8,1409,1
439,1,2,9,512,1
439,1,2,10,734,1
439,1,2,11,574,1
439,1,2,12,657,1
439,1,2,13,1354,1
439,1,2,14,758,1
439,1,2,15,526,1
439,1,2,16,706,1
439,1,2,17,492,1
439,1,2,18,396,1
439,1,2,19,576,1
439,1,2,20,1332,0
439,1,2,21,680,1
439,1,2,22,770,0
439,1,2,23,519,1
439,1,2,24,834,0
439,1,2,25,590,1
439,1,2,26,411,1
439,1,2,27,637,1
439,1,2,28,472,1
439,1,2,29,598,1
439,1,2,30,740,1
439,1,2,31,553,1
439,1,2,32,847,0
439,1,2,33,654,1
439,1,2,34,546,1
439,1,2,35,560,1
439,1,2,36,519,1
439,1,2,37,492,1
439,1,2,38,644,1
439,1,2,39,470,1
439,1,2,40,487,1
56,2,1,1,709,1
56,2,1,2,463,1
56,2,1,3,426,1
56,2,1,4,366,1
56,2,1,5,364,1
56,2,1,6,337,1
56,2,1,7,522,1
56,2,1,8,458,1
56,2,1,9,405,1
56,2,1,10,419,1
56,2,1,11,951,0
56,2,1,12,1110,1
56,2,1,13,392,1
56,2,1,14,502,1
56,2,1,15,440,1
56,2,1,16,451,1
56,2,1,17,590,1
56,2,1,18,541,1
56,2,1,19,461,1
56,2,1,20,512,1
56,2,1,21,473,1
56,2,1,22,403,1
56,2,1,23,456,1
56,2,1,24,452,1
56,2,1,25,727,1
56,2,1,26,544,1
56,2,1,27,560,1
56,2,1,28,615,1
56,2,1,29,548,1
56,2,1,30,636,1
56,2,1,31,592,1
56,2,1,32,390,1
56,2,1,33,475,1
56,2,1,34,422,1
56,2,1,35,379,1
56,2,1,36,481,1
56,2,1,37,459,1
56,2,1,38,374,1
56,2,1,39,356,1
56,2,1,40,435,1
56,2,2,1,584,1
56,2,2,2,1318,0
56,2,2,3,631,1
56,2,2,4,484,1
56,2,2,5,558,1
56,2,2,6,958,0
56,2,2,7,565,1
56,2,2,8,692,1
56,2,2,9,478,1
56,2,2,10,520,1
56,2,2,11,545,1
56,2,2,12,688,1
56,2,2,13,587,1
56,2,2,14,1001,0
56,2,2,15,615,1
56,2,2,16,715,1
56,2,2,17,644,1
56,2,2,18,545,1
56,2,2,19,857,1
56,2,2,20,469,1
56,2,2,21,591,1
56,2,2,22,582,1
56,2,2,23,692,1
56,2,2,24,574,1
56,2,2,25,469,1
56,2,2,26,775,1
56,2,2,27,398,1
56,2,2,28,539,1
56,2,2,29,596,1
56,2,2,30,513,1
56,2,2,31,498,1
56,2,2,32,403,1
56,2,2,33,440,1
56,2,2,34,756,1
56,2,2,35,491,1
56,2,2,36,517,1
56,2,2,37,494,1
56,2,2,38,784,0
56,2,2,39,606,1
56,2,2,40,939,0
52,2,1,1,901,1
52,2,1,2,881,1
52,2,1,3,551,1
52,2,1,4,435,1
52,2,1,5,681,1
52,2,1,6,925,1
52,2,1,7,553,1
52,2,1,8,544,1
52,2,1,9,539,1
52,2,1,10,494,1
52,2,1,11,492,1
52,2,1,12,716,1
52,2,1,13,487,1
52,2,1,14,741,1
52,2,1,15,515,1
52,2,1,16,499,1
52,2,1,17,744,1
52,2,1,18,598,1
52,2,1,19,495,1
52,2,1,20,469,1
52,2,1,21,485,1
52,2,1,22,561,1
52,2,1,23,742,1
52,2,1,24,495,1
52,2,1,25,460,1
52,2,1,26,471,1
52,2,1,27,494,1
52,2,1,28,505,1
52,2,1,29,1321,0
52,2,1,30,854,1
52,2,1,31,492,1
52,2,1,32,496,1
52,2,1,33,440,1
52,2,1,34,421,1
52,2,1,35,375,1
52,2,1,36,637,1
52,2,1,37,367,1
52,2,1,38,422,1
52,2,1,39,640,1
52,2,1,40,462,1
52,2,2,1,1016,1
52,2,2,2,593,1
52,2,2,3,502,1
52,2,2,4,451,1
52,2,2,5,679,1
52,2,2,6,863,1
52,2,2,7,625,1
52,2,2,8,491,1
52,2,2,9,507,1
52,2,2,10,515,1
52,2,2,11,555,1
52,2,2,12,709,1
52,2,2,13,619,1
52,2,2,14,428,1
52,2,2,15,480,1
52,2,2,16,385,1
52,2,2,17,490,1
52,2,2,18,388,1
52,2,2,19,627,1
52,2,2,20,732,1
52,2,2,21,1049,1
52,2,2,22,530,1
52,2,2,23,1006,1
52,2,2,24,1365,0
52,2,2,25,702,1
52,2,2,26,747,1
52,2,2,27,834,1
52,2,2,28,473,1
52,2,2,29,576,1
52,2,2,30,490,1
52,2,2,31,406,1
52,2,2,32,700,1
52,2,2,33,659,1
52,2,2,34,789,1
52,2,2,35,507,1
52,2,2,36,1002,1
52,2,2,37,482,1
52,2,2,38,441,1
52,2,2,39,853,1
52,2,2,40,841,1
434,2,1,1,973,1
434,2,1,2,889,1
434,2,1,3,840,1
434,2,1,4,538,1
434,2,1,5,504,1
434,2,1,6,887,1
434,2,1,7,615,1
434,2,1,8,801,1
434,2,1,9,628,1
434,2,1,10,558,1
434,2,1,11,603,1
434,2,1,12,598,1
434,2,1,13,545,1
434,2,1,14,607,1
434,2,1,15,570,1
434,2,1,16,631,1
434,2,1,17,817,1
434,2,1,18,531,1
434,2,1,19,593,1
434,2,1,20,477,1
434,2,1,21,493,1
434,2,1,22,461,1
434,2,1,23,382,1
434,2,1,24,466,1
434,2,1,25,562,1
434,2,1,26,479,1
434,2,1,27,528,1
434,2,1,28,350,1
434,2,1,29,611,1
434,2,1,30,446,1
434,2,1,31,544,1
434,2,1,32,462,1
434,2,1,33,543,1
434,2,1,34,557,1
434,2,1,35,490,1
434,2,1,36,553,1
434,2,1,37,470,1
434,2,1,38,423,1
434,2,1,39,553,1
434,2,1,40,406,1
434,2,2,1,751,1
434,2,2,2,1299,1
434,2,2,3,802,1
434,2,2,4,693,1
434,2,2,5,653,1
434,2,2,6,614,1
434,2,2,7,609,1
434,2,2,8,748,1
434,2,2,9,578,1
434,2,2,10,990,1
434,2,2,11,650,1
434,2,2,12,579,1
434,2,2,13,735,1
434,2,2,14,725,1
434,2,2,15,891,1
434,2,2,16,603,1
434,2,2,17,550,1
434,2,2,18,979,1
434,2,2,19,639,1
434,2,2,20,1609,0
434,2,2,21,651,1
434,2,2,22,708,1
434,2,2,23,779,1
434,2,2,24,751,1
434,2,2,25,676,1
434,2,2,26,637,1
434,2,2,27,854,1
434,2,2,28,743,1
434,2,2,29,605,1
434,2,2,30,680,1
434,2,2,31,640,1
434,2,2,32,890,1
434,2,2,33,554,1
434,2,2,34,711,1
434,2,2,35,558,1
434,2,2,36,683,1
434,2,2,37,882,1
434,2,2,38,658,1
434,2,2,39,587,1
434,2,2,40,535,1
435,1,1,1,842,1
435,1,1,2,517,1
435,1,1,3,531,1
435,1,1,4,578,1
435,1,1,5,487,1
435,1,1,6,655,1
435,1,1,7,487,1
435,1,1,8,520,1
435,1,1,9,542,1
435,1,1,10,549,1
435,1,1,11,546,1
435,1,1,12,559,1
435,1,1,13,501,1
435,1,1,14,491,1
435,1,1,15,484,1
435,1,1,16,499,1
435,1,1,17,571,1
435,1,1,18,663,1
435,1,1,19,585,1
435,1,1,20,668,1
435,1,1,21,565,1
435,1,1,22,553,1
435,1,1,23,639,1
435,1,1,24,561,1
435,1,1,25,574,1
435,1,1,26,538,1
435,1,1,27,561,1
435,1,1,28,918,1
435,1,1,29,620,1
435,1,1,30,543,1
435,1,1,31,541,1
435,1,1,32,731,1
435,1,1,33,529,1
435,1,1,34,616,1
435,1,1,35,506,1
435,1,1,36,562,1
435,1,1,37,639,1
435,1,1,38,489,1
435,1,1,39,530,1
435,1,1,40,519,1
435,1,2,1,2618,1
435,1,2,2,1059,1
435,1,2,3,901,1
435,1,2,4,708,1
435,1,2,5,771,1
435,1,2,6,1072,1
435,1,2,7,753,1
435,1,2,8,790,1
435,1,2,9,778,1
435,1,2,10,1079,1
435,1,2,11,855,1
435,1,2,12,864,1
435,1,2,13,665,1
435,1,2,14,666,1
435,1,2,15,747,1
435,1,2,16,1089,1
435,1,2,17,721,1
435,1,2,18,895,1
435,1,2,19,847,1
435,1,2,20,873,1
435,1,2,21,689,1
435,1,2,22,1003,1
435,1,2,23,565,1
435,1,2,24,706,1
435,1,2,25,617,1
435,1,2,26,820,1
435,1,2,27,647,1
435,1,2,28,736,1
435,1,2,29,606,1
435,1,2,30,914,1
435,1,2,31,833,1
435,1,2,32,851,1
435,1,2,33,796,1
435,1,2,34,800,1
435,1,2,35,699,1
435,1,2,36,963,1
435,1,2,37,711,1
435,1,2,38,630,1
435,1,2,39,793,1
435,1,2,40,765,1
432,2,1,1,696,1
432,2,1,2,532,1
432,2,1,3,519,1
432,2,1,4,471,1
432,2,1,5,538,1
432,2,1,6,456,1
432,2,1,7,504,1
432,2,1,8,489,1
432,2,1,9,484,1
432,2,1,10,554,1
432,2,1,11,791,1
432,2,1,12,614,1
432,2,1,13,655,1
432,2,1,14,908,1
432,2,1,15,589,1
432,2,1,16,624,1
432,2,1,17,597,1
432,2,1,18,462,1
432,2,1,19,515,1
432,2,1,20,464,1
432,2,1,21,522,1
432,2,1,22,535,1
432,2,1,23,658,1
432,2,1,24,579,1
432,2,1,25,650,1
432,2,1,26,692,1
432,2,1,27,647,1
432,2,1,28,579,1
432,2,1,29,513,1
432,2,1,30,565,1
432,2,1,31,517,1
432,2,1,32,720,1
432,2,1,33,572,1
432,2,1,34,560,1
432,2,1,35,608,1
432,2,1,36,566,1
432,2,1,37,574,1
432,2,1,38,530,1
432,2,1,39,774,1
432,2,1,40,672,1
432,2,2,1,1615,1
432,2,2,2,564,1
432,2,2,3,867,1
432,2,2,4,705,1
432,2,2,5,662,1
432,2,2,6,1042,1
432,2,2,7,1041,1
432,2,2,8,694,1
432,2,2,9,949,1
432,2,2,10,873,1
432,2,2,11,774,1
432,2,2,12,675,1
432,2,2,13,878,1
432,2,2,14,737,1
432,2,2,15,867,1
432,2,2,16,706,1
432,2,2,17,984,1
432,2,2,18,700,1
432,2,2,19,673,1
432,2,2,20,627,1
432,2,2,21,610,1
432,2,2,22,1039,0
432,2,2,23,946,1
432,2,2,24,586,1
432,2,2,25,825,1
432,2,2,26,724,1
432,2,2,27,595,1
432,2,2,28,909,1
432,2,2,29,782,1
432,2,2,30,560,1
432,2,2,31,638,1
432,2,2,32,608,1
432,2,2,33,816,1
432,2,2,34,860,1
432,2,2,35,825,1
432,2,2,36,406,1
432,2,2,37,433,1
432,2,2,38,419,1
432,2,2,39,537,1
432,2,2,40,662,1
433,1,1,1,513,1
433,1,1,2,465,1
433,1,1,3,366,1
433,1,1,4,460,1
433,1,1,5,406,1
433,1,1,6,566,1
433,1,1,7,547,1
433,1,1,8,495,1
433,1,1,9,456,1
433,1,1,10,420,1
433,1,1,11,485,1
433,1,1,12,426,1
433,1,1,13,486,1
433,1,1,14,870,0
433,1,1,15,507,1
433,1,1,16,443,1
433,1,1,17,533,1
433,1,1,18,462,1
433,1,1,19,477,1
433,1,1,20,856,1
433,1,1,21,749,1
433,1,1,22,589,1
433,1,1,23,431,1
433,1,1,24,521,1
433,1,1,25,517,1
433,1,1,26,456,1
433,1,1,27,388,1
433,1,1,28,505,1
433,1,1,29,494,1
433,1,1,30,478,1
433,1,1,31,387,1
433,1,1,32,437,1
433,1,1,33,466,1
433,1,1,34,431,1
433,1,1,35,509,1
433,1,1,36,301,1
433,1,1,37,336,1
433,1,1,38,412,1
433,1,1,39,698,0
433,1,1,40,540,1
433,1,2,1,1366,1
433,1,2,2,506,1
433,1,2,3,665,1
433,1,2,4,572,1
433,1,2,5,558,1
433,1,2,6,639,1
433,1,2,7,586,1
433,1,2,8,505,1
433,1,2,9,511,1
433,1,2,10,591,1
433,1,2,11,696,1
433,1,2,12,772,0
433,1,2,13,481,1
433,1,2,14,389,1
433,1,2,15,414,1
433,1,2,16,938,0
433,1,2,17,483,1
433,1,2,18,539,1
433,1,2,19,505,1
433,1,2,20,825,0
433,1,2,21,613,1
433,1,2,22,603,1
433,1,2,23,568,1
433,1,2,24,456,1
433,1,2,25,576,1
433,1,2,26,464,1
433,1,2,27,713,1
433,1,2,28,866,0
433,1,2,29,549,1
433,1,2,30,752,1
433,1,2,31,548,1
433,1,2,32,580,1
433,1,2,33,704,0
433,1,2,34,1344,1
433,1,2,35,788,1
433,1,2,36,569,1
433,1,2,37,556,1
433,1,2,38,393,1
433,1,2,39,554,1
433,1,2,40,657,1
378,2,1,1,760,1
378,2,1,2,1340,1
378,2,1,3,691,1
378,2,1,4,561,1
378,2,1,5,540,1
378,2,1,6,559,1
378,2,1,7,599,1
378,2,1,8,531,1
378,2,1,9,580,1
378,2,1,10,624,1
378,2,1,11,548,1
378,2,1,12,552,1
378,2,1,13,589,1
378,2,1,14,506,1
378,2,1,15,523,1
378,2,1,16,554,1
378,2,1,17,508,1
378,2,1,18,424,1
378,2,1,19,560,1
378,2,1,20,539,1
378,2,1,21,598,1
378,2,1,22,534,1
378,2,1,23,518,1
378,2,1,24,510,1
378,2,1,25,613,1
378,2,1,26,672,1
378,2,1,27,655,1
378,2,1,28,504,1
378,2,1,29,540,1
378,2,1,30,444,1
378,2,1,31,438,1
378,2,1,32,442,1
378,2,1,33,488,1
378,2,1,34,457,1
378,2,1,35,615,1
378,2,1,36,497,1
378,2,1,37,829,1
378,2,1,38,590,1
378,2,1,39,503,1
378,2,1,40,471,1
378,2,2,1,1087,1
378,2,2,2,1384,1
378,2,2,3,849,1
378,2,2,4,2493,1
378,2,2,5,1073,1
378,2,2,6,1452,1
378,2,2,7,1042,1
378,2,2,8,1121,1
378,2,2,9,1410,1
378,2,2,10,885,1
378,2,2,11,869,1
378,2,2,12,802,1
378,2,2,13,728,1
378,2,2,14,1253,1
378,2,2,15,709,1
378,2,2,16,1436,1
378,2,2,17,762,1
378,2,2,18,949,1
378,2,2,19,807,1
378,2,2,20,1332,1
378,2,2,21,717,1
378,2,2,22,2798,0
378,2,2,23,1087,1
378,2,2,24,1575,1
378,2,2,25,793,1
378,2,2,26,1411,1
378,2,2,27,942,1
378,2,2,28,820,1
378,2,2,29,792,1
378,2,2,30,773,1
378,2,2,31,1184,1
378,2,2,32,869,1
378,2,2,33,1018,1
378,2,2,34,838,1
378,2,2,35,776,1
378,2,2,36,747,1
378,2,2,37,831,1
378,2,2,38,1382,1
378,2,2,39,925,1
378,2,2,40,1155,1
428,2,1,1,1002,1
428,2,1,2,478,1
428,2,1,3,504,1
428,2,1,4,432,1
428,2,1,5,489,1
428,2,1,6,363,1
428,2,1,7,415,1
428,2,1,8,409,1
428,2,1,9,392,1
428,2,1,10,683,0
428,2,1,11,482,1
428,2,1,12,488,1
428,2,1,13,452,1
428,2,1,14,415,1
428,2,1,15,368,1
428,2,1,16,509,1
428,2,1,17,511,1
428,2,1,18,400,1
428,2,1,19,409,1
428,2,1,20,441,1
428,2,1,21,434,1
428,2,1,22,438,1
428,2,1,23,530,1
428,2,1,24,402,1
428,2,1,25,421,1
428,2,1,26,368,1
428,2,1,27,376,1
428,2,1,28,381,1
428,2,1,29,361,1
428,2,1,30,424,1
428,2,1,31,557,1
428,2,1,32,593,1
428,2,1,33,466,1
428,2,1,34,544,1
428,2,1,35,438,1
428,2,1,36,474,1
428,2,1,37,472,1
428,2,1,38,823,0
428,2,1,39,393,1
428,2,1,40,426,1
428,2,2,1,686,1
428,2,2,2,389,1
428,2,2,3,465,1
428,2,2,4,456,1
428,2,2,5,624,1
428,2,2,6,516,1
428,2,2,7,655,1
428,2,2,8,677,1
428,2,2,9,374,1
428,2,2,10,467,1
428,2,2,11,544,1
428,2,2,12,650,1
428,2,2,13,521,1
428,2,2,14,832,0
428,2,2,15,624,1
428,2,2,16,537,1
428,2,2,17,455,1
428,2,2,18,427,1
428,2,2,19,488,1
428,2,2,20,755,1
428,2,2,21,527,1
428,2,2,22,549,1
428,2,2,23,457,1
428,2,2,24,440,1
428,2,2,25,545,1
428,2,2,26,489,1
428,2,2,27,573,1
428,2,2,28,394,1
428,2,2,29,489,1
428,2,2,30,472,1
428,2,2,31,491,1
428,2,2,32,719,1
428,2,2,33,443,1
428,2,2,34,489,1
428,2,2,35,345,1
428,2,2,36,426,1
428,2,2,37,518,1
428,2,2,38,832,1
428,2,2,39,560,1
428,2,2,40,816,0
431,1,1,1,1144,1
431,1,1,2,810,1
431,1,1,3,655,1
431,1,1,4,923,1
431,1,1,5,958,1
431,1,1,6,558,1
431,1,1,7,541,1
431,1,1,8,694,1
431,1,1,9,566,1
431,1,1,10,627,1
431,1,1,11,432,1
431,1,1,12,561,1
431,1,1,13,395,1
431,1,1,14,852,1
431,1,1,15,584,1
431,1,1,16,715,1
431,1,1,17,5946,0
431,1,1,18,1064,1
431,1,1,19,762,1
431,1,1,20,640,1
431,1,1,21,781,1
431,1,1,22,515,1
431,1,1,23,860,1
431,1,1,24,607,1
431,1,1,25,607,1
431,1,1,26,549,1
431,1,1,27,657,1
431,1,1,28,739,1
431,1,1,29,766,1
431,1,1,30,619,1
431,1,1,31,605,1
431,1,1,32,542,1
431,1,1,33,672,1
431,1,1,34,833,1
431,1,1,35,523,1
431,1,1,36,633,1
431,1,1,37,818,1
431,1,1,38,652,1
431,1,1,39,626,1
431,1,1,40,559,1
431,1,2,1,1016,1
431,1,2,2,1423,1
431,1,2,3,619,1
431,1,2,4,684,1
431,1,2,5,944,1
431,1,2,6,1388,1
431,1,2,7,1050,1
431,1,2,8,760,1
431,1,2,9,1136,1
431,1,2,10,774,1
431,1,2,11,637,1
431,1,2,12,854,1
431,1,2,13,668,1
431,1,2,14,2524,0
431,1,2,15,939,1
431,1,2,16,4124,0
431,1,2,17,1202,1
431,1,2,18,957,1
431,1,2,19,618,1
431,1,2,20,757,1
431,1,2,21,807,1
431,1,2,22,1042,1
431,1,2,23,703,1
431,1,2,24,1986,0
431,1,2,25,902,1
431,1,2,26,1092,1
431,1,2,27,999,1
431,1,2,28,910,1
431,1,2,29,741,1
431,1,2,30,948,1
431,1,2,31,743,1
431,1,2,32,704,1
431,1,2,33,936,1
431,1,2,34,846,1
431,1,2,35,842,1
431,1,2,36,838,1
431,1,2,37,706,1
431,1,2,38,598,1
431,1,2,39,635,1
431,1,2,40,940,1
419,1,1,1,1197,1
419,1,1,2,1545,1
419,1,1,3,840,1
419,1,1,4,499,1
419,1,1,5,780,1
419,1,1,6,640,1
419,1,1,7,610,1
419,1,1,8,678,1
419,1,1,9,663,1
419,1,1,10,1184,1
419,1,1,11,1645,1
419,1,1,12,752,1
419,1,1,13,637,1
419,1,1,14,528,1
419,1,1,15,590,1
419,1,1,16,571,1
419,1,1,17,584,1
419,1,1,18,596,1
419,1,1,19,864,1
419,1,1,20,578,1
419,1,1,21,647,1
419,1,1,22,593,1
419,1,1,23,589,1
419,1,1,24,530,1
419,1,1,25,521,1
419,1,1,26,480,1
419,1,1,27,464,1
419,1,1,28,562,1
419,1,1,29,536,1
419,1,1,30,510,1
419,1,1,31,526,1
419,1,1,32,548,1
419,1,1,33,490,1
419,1,1,34,530,1
419,1,1,35,1425,0
419,1,1,36,1301,1
419,1,1,37,588,1
419,1,1,38,600,1
419,1,1,39,580,1
419,1,1,40,505,1
419,1,2,1,1455,1
419,1,2,2,1465,0
419,1,2,3,922,1
419,1,2,4,1089,1
419,1,2,5,1569,1
419,1,2,6,895,1
419,1,2,7,1039,1
419,1,2,8,706,1
419,1,2,9,1073,1
419,1,2,10,842,1
419,1,2,11,997,1
419,1,2,12,1793,0
419,1,2,13,861,1
419,1,2,14,687,1
419,1,2,15,743,1
419,1,2,16,966,1
419,1,2,17,979,1
419,1,2,18,568,1
419,1,2,19,734,1
419,1,2,20,1363,0
419,1,2,21,2144,1
419,1,2,22,999,1
419,1,2,23,835,1
419,1,2,24,901,1
419,1,2,25,813,1
419,1,2,26,905,1
419,1,2,27,656,1
419,1,2,28,618,1
419,1,2,29,693,1
419,1,2,30,1325,1
419,1,2,31,788,1
419,1,2,32,1033,1
419,1,2,33,923,1
419,1,2,34,818,1
419,1,2,35,693,1
419,1,2,36,638,1
419,1,2,37,512,1
419,1,2,38,936,1
419,1,2,39,838,1
419,1,2,40,568,1
422,2,1,1,1124,1
422,2,1,2,970,1
422,2,1,3,654,1
422,2,1,4,1134,1
422,2,1,5,803,1
422,2,1,6,781,1
422,2,1,7,641,1
422,2,1,8,706,1
422,2,1,9,408,1
422,2,1,10,363,1
422,2,1,11,400,1
422,2,1,12,650,1
422,2,1,13,539,1
422,2,1,14,664,1
422,2,1,15,456,1
422,2,1,16,425,1
422,2,1,17,531,1
422,2,1,18,433,1
422,2,1,19,513,1
