"participant","condition","block","trial_n","rt","accuracy"
570,2,1,1,652,1
570,2,1,2,477,1
570,2,1,3,557,1
570,2,1,4,403,1
570,2,1,5,519,1
570,2,1,6,581,1
570,2,1,7,626,1
570,2,1,8,525,1
570,2,1,9,476,1
570,2,1,10,436,1
570,2,1,11,478,1
570,2,1,12,463,1
570,2,1,13,529,1
570,2,1,14,599,1
570,2,1,15,459,1
570,2,1,16,612,1
570,2,1,17,471,1
570,2,1,18,496,1
570,2,1,19,432,1
570,2,1,20,523,1
570,2,1,21,473,1
570,2,1,22,530,1
570,2,1,23,416,1
570,2,1,24,476,1
570,2,1,25,508,1
570,2,1,26,475,1
570,2,1,27,444,1
570,2,1,28,479,1
570,2,1,29,407,1
570,2,1,30,595,1
570,2,1,31,415,1
570,2,1,32,587,1
570,2,1,33,526,1
570,2,1,34,453,1
570,2,1,35,486,1
570,2,1,36,471,1
570,2,1,37,487,1
570,2,1,38,391,1
570,2,1,39,595,1
570,2,1,40,599,1
570,2,2,1,479,1
570,2,2,2,609,1
570,2,2,3,572,1
570,2,2,4,505,1
570,2,2,5,529,1
570,2,2,6,511,1
570,2,2,7,535,1
570,2,2,8,572,1
570,2,2,9,521,1
570,2,2,10,440,1
570,2,2,11,531,1
570,2,2,12,425,1
570,2,2,13,539,1
570,2,2,14,610,1
570,2,2,15,509,1
570,2,2,16,604,1
570,2,2,17,512,1
570,2,2,18,583,1
570,2,2,19,444,1
570,2,2,20,494,1
570,2,2,21,502,1
570,2,2,22,549,1
570,2,2,23,483,1
570,2,2,24,483,1
570,2,2,25,491,1
570,2,2,26,395,1
570,2,2,27,407,1
570,2,2,28,699,0
570,2,2,29,594,1
570,2,2,30,574,1
570,2,2,31,547,1
570,2,2,32,616,1
570,2,2,33,508,1
570,2,2,34,595,1
570,2,2,35,511,1
570,2,2,36,607,1
570,2,2,37,426,1
570,2,2,38,476,1
570,2,2,39,517,1
570,2,2,40,444,1
567,1,1,1,1329,1
567,1,1,2,595,1
567,1,1,3,391,1
567,1,1,4,450,1
567,1,1,5,645,1
567,1,1,6,982,1
567,1,1,7,779,1
567,1,1,8,866,1
567,1,1,9,645,1
567,1,1,10,558,1
567,1,1,11,575,1
567,1,1,12,865,1
567,1,1,13,511,1
567,1,1,14,495,1
567,1,1,15,550,1
567,1,1,16,322,1
567,1,1,17,341,1
567,1,1,18,312,1
567,1,1,19,309,1
567,1,1,20,325,1
567,1,1,21,399,1
567,1,1,22,509,1
567,1,1,23,513,1
567,1,1,24,606,1
567,1,1,25,580,1
567,1,1,26,595,1
567,1,1,27,837,0
567,1,1,28,763,1
567,1,1,29,419,1
567,1,1,30,415,1
567,1,1,31,568,1
567,1,1,32,571,1
567,1,1,33,583,1
567,1,1,34,650,1
567,1,1,35,585,1
567,1,1,36,555,1
567,1,1,37,524,1
567,1,1,38,502,1
567,1,1,39,748,1
567,1,1,40,509,1
567,1,2,1,1017,1
567,1,2,2,866,1
567,1,2,3,891,1
567,1,2,4,760,1
567,1,2,5,797,1
567,1,2,6,1243,1
567,1,2,7,658,1
567,1,2,8,978,1
567,1,2,9,670,1
567,1,2,10,866,1
567,1,2,11,743,1
567,1,2,12,1272,1
567,1,2,13,710,1
567,1,2,14,677,1
567,1,2,15,897,1
567,1,2,16,1693,1
567,1,2,17,983,1
567,1,2,18,884,1
567,1,2,19,982,1
567,1,2,20,865,1
567,1,2,21,1131,1
567,1,2,22,904,1
567,1,2,23,903,1
567,1,2,24,850,1
567,1,2,25,750,1
567,1,2,26,820,1
567,1,2,27,1758,1
567,1,2,28,2071,1
567,1,2,29,671,1
567,1,2,30,626,1
567,1,2,31,740,1
567,1,2,32,537,1
567,1,2,33,801,1
567,1,2,34,718,1
567,1,2,35,836,1
567,1,2,36,808,1
567,1,2,37,854,1
567,1,2,38,542,1
567,1,2,39,442,1
567,1,2,40,796,1
569,1,1,1,474,1
569,1,1,2,453,1
569,1,1,3,465,1
569,1,1,4,380,1
569,1,1,5,454,1
569,1,1,6,413,1
569,1,1,7,461,1
569,1,1,8,352,1
569,1,1,9,432,1
569,1,1,10,541,1
569,1,1,11,567,1
569,1,1,12,486,1
569,1,1,13,431,1
569,1,1,14,414,1
569,1,1,15,421,1
569,1,1,16,444,1
569,1,1,17,464,1
569,1,1,18,400,1
569,1,1,19,409,1
569,1,1,20,418,1
569,1,1,21,413,1
569,1,1,22,395,1
569,1,1,23,436,1
569,1,1,24,510,1
569,1,1,25,340,1
569,1,1,26,515,1
569,1,1,27,362,1
569,1,1,28,431,1
569,1,1,29,467,1
569,1,1,30,422,1
569,1,1,31,414,1
569,1,1,32,491,1
569,1,1,33,648,1
569,1,1,34,350,1
569,1,1,35,440,1
569,1,1,36,544,1
569,1,1,37,593,1
569,1,1,38,449,1
569,1,1,39,477,1
569,1,1,40,410,1
569,1,2,1,471,1
569,1,2,2,851,1
569,1,2,3,635,1
569,1,2,4,430,1
569,1,2,5,682,1
569,1,2,6,611,1
569,1,2,7,497,1
569,1,2,8,656,1
569,1,2,9,531,1
569,1,2,10,639,1
569,1,2,11,588,1
569,1,2,12,498,1
569,1,2,13,477,1
569,1,2,14,457,1
569,1,2,15,535,1
569,1,2,16,495,1
569,1,2,17,467,1
569,1,2,18,484,1
569,1,2,19,904,0
569,1,2,20,918,0
569,1,2,21,692,1
569,1,2,22,577,1
569,1,2,23,381,1
569,1,2,24,421,1
569,1,2,25,585,1
569,1,2,26,532,1
569,1,2,27,424,1
569,1,2,28,426,1
569,1,2,29,534,1
569,1,2,30,618,1
569,1,2,31,712,0
569,1,2,32,875,0
569,1,2,33,550,1
569,1,2,34,661,1
569,1,2,35,675,1
569,1,2,36,901,0
569,1,2,37,469,1
569,1,2,38,512,1
569,1,2,39,712,1
569,1,2,40,575,1
565,1,1,1,1075,1
565,1,1,2,875,1
565,1,1,3,723,1
565,1,1,4,848,1
565,1,1,5,698,1
565,1,1,6,733,1
565,1,1,7,586,1
565,1,1,8,1034,1
565,1,1,9,690,1
565,1,1,10,640,1
565,1,1,11,709,1
565,1,1,12,641,1
565,1,1,13,661,1
565,1,1,14,802,1
565,1,1,15,830,1
565,1,1,16,1322,1
565,1,1,17,669,1
565,1,1,18,548,1
565,1,1,19,530,1
565,1,1,20,1047,1
565,1,1,21,676,1
565,1,1,22,786,1
565,1,1,23,710,1
565,1,1,24,719,1
565,1,1,25,900,1
565,1,1,26,785,1
565,1,1,27,848,1
565,1,1,28,945,1
565,1,1,29,739,1
565,1,1,30,1201,1
565,1,1,31,637,1
565,1,1,32,889,1
565,1,1,33,2240,1
565,1,1,34,881,1
565,1,1,35,755,1
565,1,1,36,1426,1
565,1,1,37,776,1
565,1,1,38,680,1
565,1,1,39,731,1
565,1,1,40,715,1
565,1,2,1,766,1
565,1,2,2,882,1
565,1,2,3,807,1
565,1,2,4,575,1
565,1,2,5,673,1
565,1,2,6,1029,0
565,1,2,7,897,1
565,1,2,8,825,1
565,1,2,9,635,1
565,1,2,10,678,1
565,1,2,11,667,1
565,1,2,12,935,1
565,1,2,13,873,1
565,1,2,14,736,1
565,1,2,15,784,1
565,1,2,16,880,1
565,1,2,17,740,1
565,1,2,18,704,1
565,1,2,19,625,1
565,1,2,20,1771,1
565,1,2,21,1112,1
565,1,2,22,620,1
565,1,2,23,1433,1
565,1,2,24,886,1
565,1,2,25,887,1
565,1,2,26,657,1
565,1,2,27,620,1
565,1,2,28,671,1
565,1,2,29,614,1
565,1,2,30,509,1
565,1,2,31,731,1
565,1,2,32,816,1
565,1,2,33,595,1
565,1,2,34,756,1
565,1,2,35,513,1
565,1,2,36,698,1
565,1,2,37,519,1
565,1,2,38,888,1
565,1,2,39,599,1
565,1,2,40,729,1
562,2,1,1,931,1
562,2,1,2,463,1
562,2,1,3,543,1
562,2,1,4,452,1
562,2,1,5,913,0
562,2,1,6,459,1
562,2,1,7,397,1
562,2,1,8,668,0
562,2,1,9,636,1
562,2,1,10,551,1
562,2,1,11,327,1
562,2,1,12,383,1
562,2,1,13,345,1
562,2,1,14,827,0
562,2,1,15,666,0
562,2,1,16,437,1
562,2,1,17,321,1
562,2,1,18,397,1
562,2,1,19,852,0
562,2,1,20,392,1
562,2,1,21,339,1
562,2,1,22,452,1
562,2,1,23,399,1
562,2,1,24,358,1
562,2,1,25,330,1
562,2,1,26,387,1
562,2,1,27,443,1
562,2,1,28,415,0
562,2,1,29,539,1
562,2,1,30,831,0
562,2,1,31,404,1
562,2,1,32,815,0
562,2,1,33,466,1
562,2,1,34,364,1
562,2,1,35,381,1
562,2,1,36,718,0
562,2,1,37,439,1
562,2,1,38,493,1
562,2,1,39,321,1
562,2,1,40,530,1
562,2,2,1,904,1
562,2,2,2,726,1
562,2,2,3,604,1
562,2,2,4,506,1
562,2,2,5,542,1
562,2,2,6,517,1
562,2,2,7,555,1
562,2,2,8,576,1
562,2,2,9,487,1
562,2,2,10,458,1
562,2,2,11,466,1
562,2,2,12,505,1
562,2,2,13,723,1
562,2,2,14,648,1
562,2,2,15,508,1
562,2,2,16,594,1
562,2,2,17,671,1
562,2,2,18,831,1
562,2,2,19,513,1
562,2,2,20,501,1
562,2,2,21,646,1
562,2,2,22,661,1
562,2,2,23,943,0
562,2,2,24,1097,1
562,2,2,25,277,1
562,2,2,26,534,1
562,2,2,27,599,1
562,2,2,28,721,1
562,2,2,29,490,1
562,2,2,30,528,1
562,2,2,31,544,1
562,2,2,32,438,1
562,2,2,33,519,1
562,2,2,34,497,1
562,2,2,35,401,1
562,2,2,36,508,1
562,2,2,37,300,1
562,2,2,38,403,1
562,2,2,39,320,1
562,2,2,40,483,1
558,2,1,1,657,1
558,2,1,2,426,1
558,2,1,3,383,1
558,2,1,4,358,1
558,2,1,5,347,1
558,2,1,6,461,1
558,2,1,7,392,1
558,2,1,8,478,1
558,2,1,9,542,1
558,2,1,10,414,1
558,2,1,11,388,1
558,2,1,12,434,1
558,2,1,13,415,1
558,2,1,14,436,1
558,2,1,15,445,1
558,2,1,16,832,0
558,2,1,17,430,1
558,2,1,18,587,1
558,2,1,19,546,1
558,2,1,20,426,1
558,2,1,21,483,1
558,2,1,22,430,1
558,2,1,23,427,1
558,2,1,24,424,1
558,2,1,25,469,1
558,2,1,26,593,1
558,2,1,27,540,1
558,2,1,28,437,1
558,2,1,29,378,1
558,2,1,30,400,1
558,2,1,31,438,1
558,2,1,32,475,1
558,2,1,33,519,1
558,2,1,34,659,1
558,2,1,35,471,1
558,2,1,36,436,1
558,2,1,37,417,1
558,2,1,38,437,1
558,2,1,39,394,1
558,2,1,40,477,1
558,2,2,1,559,1
558,2,2,2,472,1
558,2,2,3,547,1
558,2,2,4,411,1
558,2,2,5,466,1
558,2,2,6,432,1
558,2,2,7,429,1
558,2,2,8,2595,0
558,2,2,9,503,1
558,2,2,10,405,1
558,2,2,11,1003,0
558,2,2,12,666,1
558,2,2,13,463,1
558,2,2,14,483,1
558,2,2,15,448,1
558,2,2,16,477,1
558,2,2,17,464,1
558,2,2,18,467,1
558,2,2,19,447,1
558,2,2,20,531,1
558,2,2,21,500,1
558,2,2,22,474,1
558,2,2,23,502,1
558,2,2,24,520,1
558,2,2,25,578,1
558,2,2,26,546,1
558,2,2,27,442,1
558,2,2,28,458,1
558,2,2,29,502,1
558,2,2,30,545,1
558,2,2,31,480,1
558,2,2,32,507,1
558,2,2,33,487,1
558,2,2,34,684,1
558,2,2,35,512,1
558,2,2,36,818,1
558,2,2,37,552,1
558,2,2,38,553,1
558,2,2,39,549,1
558,2,2,40,493,1
563,1,1,1,677,1
563,1,1,2,502,1
563,1,1,3,517,1
563,1,1,4,468,1
563,1,1,5,540,1
563,1,1,6,438,1
563,1,1,7,487,1
563,1,1,8,1116,0
563,1,1,9,642,1
563,1,1,10,545,1
563,1,1,11,446,1
563,1,1,12,476,1
563,1,1,13,473,1
563,1,1,14,402,1
563,1,1,15,901,0
563,1,1,16,563,1
563,1,1,17,525,1
563,1,1,18,527,1
563,1,1,19,486,1
563,1,1,20,538,1
563,1,1,21,476,1
563,1,1,22,441,1
563,1,1,23,395,1
563,1,1,24,607,1
563,1,1,25,606,1
563,1,1,26,949,0
563,1,1,27,622,1
563,1,1,28,493,1
563,1,1,29,377,1
563,1,1,30,465,1
563,1,1,31,343,1
563,1,1,32,492,1
563,1,1,33,584,1
563,1,1,34,435,1
563,1,1,35,502,1
563,1,1,36,561,1
563,1,1,37,478,1
563,1,1,38,499,1
563,1,1,39,531,1
563,1,1,40,505,1
563,1,2,1,862,1
563,1,2,2,764,1
563,1,2,3,869,1
563,1,2,4,606,1
563,1,2,5,537,1
563,1,2,6,659,1
563,1,2,7,641,1
563,1,2,8,799,1
563,1,2,9,558,1
563,1,2,10,680,1
563,1,2,11,636,1
563,1,2,12,1307,0
563,1,2,13,761,1
563,1,2,14,730,1
563,1,2,15,641,1
563,1,2,16,583,1
563,1,2,17,539,1
563,1,2,18,517,1
563,1,2,19,676,1
563,1,2,20,455,1
563,1,2,21,777,1
563,1,2,22,393,1
563,1,2,23,481,1
563,1,2,24,706,1
563,1,2,25,578,1
563,1,2,26,1066,0
563,1,2,27,758,1
563,1,2,28,459,1
563,1,2,29,897,0
563,1,2,30,568,1
563,1,2,31,573,1
563,1,2,32,834,1
563,1,2,33,532,1
563,1,2,34,546,1
563,1,2,35,932,0
563,1,2,36,778,1
563,1,2,37,907,1
563,1,2,38,710,1
563,1,2,39,629,1
563,1,2,40,615,1
559,1,1,1,472,1
559,1,1,2,585,1
559,1,1,3,901,0
559,1,1,4,492,1
559,1,1,5,436,1
559,1,1,6,414,1
559,1,1,7,433,1
559,1,1,8,444,1
559,1,1,9,879,0
559,1,1,10,471,1
559,1,1,11,456,1
559,1,1,12,489,1
559,1,1,13,441,1
559,1,1,14,502,1
559,1,1,15,875,0
559,1,1,16,555,1
559,1,1,17,617,1
559,1,1,18,460,1
559,1,1,19,414,1
559,1,1,20,449,1
559,1,1,21,451,1
559,1,1,22,468,1
559,1,1,23,405,1
559,1,1,24,545,1
559,1,1,25,879,0
559,1,1,26,399,1
559,1,1,27,387,1
559,1,1,28,703,0
559,1,1,29,462,1
559,1,1,30,495,1
559,1,1,31,920,0
559,1,1,32,462,1
559,1,1,33,488,1
559,1,1,34,472,1
559,1,1,35,425,1
559,1,1,36,659,1
559,1,1,37,397,1
559,1,1,38,401,1
559,1,1,39,717,0
559,1,1,40,315,1
559,1,2,1,585,1
559,1,2,2,629,1
559,1,2,3,464,1
559,1,2,4,665,1
559,1,2,5,914,0
559,1,2,6,401,1
559,1,2,7,413,1
559,1,2,8,664,1
559,1,2,9,530,1
559,1,2,10,457,1
559,1,2,11,634,1
559,1,2,12,596,1
559,1,2,13,521,1
559,1,2,14,456,1
559,1,2,15,633,0
559,1,2,16,539,1
559,1,2,17,785,0
559,1,2,18,485,1
559,1,2,19,725,0
559,1,2,20,971,0
559,1,2,21,847,0
559,1,2,22,705,1
559,1,2,23,433,1
559,1,2,24,531,1
559,1,2,25,473,1
559,1,2,26,514,1
559,1,2,27,425,1
559,1,2,28,708,1
559,1,2,29,444,1
559,1,2,30,630,1
559,1,2,31,720,1
559,1,2,32,1152,0
559,1,2,33,461,1
559,1,2,34,646,1
559,1,2,35,1112,0
559,1,2,36,664,1
559,1,2,37,481,1
559,1,2,38,698,0
559,1,2,39,721,0
559,1,2,40,152,0
554,2,1,1,736,1
554,2,1,2,637,1
554,2,1,3,574,1
554,2,1,4,539,1
554,2,1,5,664,1
554,2,1,6,584,1
554,2,1,7,516,1
554,2,1,8,522,1
554,2,1,9,552,1
554,2,1,10,749,1
554,2,1,11,562,1
554,2,1,12,750,1
554,2,1,13,443,1
554,2,1,14,564,1
554,2,1,15,697,1
554,2,1,16,576,1
554,2,1,17,636,1
554,2,1,18,1365,1
554,2,1,19,673,1
554,2,1,20,1049,1
554,2,1,21,770,1
554,2,1,22,742,1
554,2,1,23,747,1
554,2,1,24,728,1
554,2,1,25,870,1
554,2,1,26,733,1
554,2,1,27,531,1
554,2,1,28,665,1
554,2,1,29,593,1
554,2,1,30,724,1
554,2,1,31,674,1
554,2,1,32,650,1
554,2,1,33,539,1
554,2,1,34,464,1
554,2,1,35,608,1
554,2,1,36,739,1
554,2,1,37,544,1
554,2,1,38,638,1
554,2,1,39,575,1
554,2,1,40,619,1
554,2,2,1,871,1
554,2,2,2,751,1
554,2,2,3,683,1
554,2,2,4,674,1
554,2,2,5,794,1
554,2,2,6,1589,1
554,2,2,7,1000,1
554,2,2,8,691,1
554,2,2,9,714,1
554,2,2,10,1032,1
554,2,2,11,834,1
554,2,2,12,803,1
554,2,2,13,1069,1
554,2,2,14,893,1
554,2,2,15,715,1
554,2,2,16,1290,1
554,2,2,17,673,1
554,2,2,18,841,1
554,2,2,19,1306,1
554,2,2,20,688,1
554,2,2,21,647,1
554,2,2,22,768,1
554,2,2,23,820,1
554,2,2,24,702,1
554,2,2,25,828,1
554,2,2,26,582,1
554,2,2,27,618,1
554,2,2,28,812,1
554,2,2,29,486,1
554,2,2,30,605,1
554,2,2,31,792,1
554,2,2,32,659,1
554,2,2,33,828,1
554,2,2,34,629,1
554,2,2,35,623,1
554,2,2,36,793,1
554,2,2,37,580,1
554,2,2,38,696,1
554,2,2,39,535,1
554,2,2,40,572,1
556,2,1,1,1147,1
556,2,1,2,583,1
556,2,1,3,545,1
556,2,1,4,494,1
556,2,1,5,493,1
556,2,1,6,388,1
556,2,1,7,399,1
556,2,1,8,402,1
556,2,1,9,452,1
556,2,1,10,396,1
556,2,1,11,423,1
556,2,1,12,409,1
556,2,1,13,571,1
556,2,1,14,439,1
556,2,1,15,416,1
556,2,1,16,609,1
556,2,1,17,475,1
556,2,1,18,499,1
556,2,1,19,441,1
556,2,1,20,418,1
556,2,1,21,484,1
556,2,1,22,435,1
556,2,1,23,420,1
556,2,1,24,357,1
556,2,1,25,418,1
556,2,1,26,387,1
556,2,1,27,398,1
556,2,1,28,505,1
556,2,1,29,447,1
556,2,1,30,481,1
556,2,1,31,424,1
556,2,1,32,441,1
556,2,1,33,426,1
556,2,1,34,492,1
556,2,1,35,379,1
556,2,1,36,463,1
556,2,1,37,623,1
556,2,1,38,424,1
556,2,1,39,370,1
556,2,1,40,430,1
556,2,2,1,2560,1
556,2,2,2,721,1
556,2,2,3,527,1
556,2,2,4,812,1
556,2,2,5,566,1
556,2,2,6,833,1
556,2,2,7,538,1
556,2,2,8,678,1
556,2,2,9,550,1
556,2,2,10,866,1
556,2,2,11,489,1
556,2,2,12,552,1
556,2,2,13,524,1
556,2,2,14,1074,0
556,2,2,15,888,1
556,2,2,16,654,1
556,2,2,17,798,1
556,2,2,18,545,1
556,2,2,19,613,1
556,2,2,20,487,1
556,2,2,21,494,1
556,2,2,22,565,1
556,2,2,23,897,1
556,2,2,24,840,0
556,2,2,25,623,1
556,2,2,26,569,1
556,2,2,27,540,1
556,2,2,28,705,1
556,2,2,29,791,1
556,2,2,30,897,0
556,2,2,31,775,1
556,2,2,32,954,0
556,2,2,33,957,1
556,2,2,34,723,1
556,2,2,35,670,1
556,2,2,36,757,1
556,2,2,37,609,1
556,2,2,38,1043,0
556,2,2,39,650,1
556,2,2,40,642,1
555,1,1,1,1963,1
555,1,1,2,828,1
555,1,1,3,599,1
555,1,1,4,2255,1
555,1,1,5,508,1
555,1,1,6,592,1
555,1,1,7,502,1
555,1,1,8,817,1
555,1,1,9,1036,1
555,1,1,10,770,1
555,1,1,11,610,1
555,1,1,12,675,1
555,1,1,13,808,1
555,1,1,14,641,1
555,1,1,15,663,1
555,1,1,16,697,1
555,1,1,17,485,1
555,1,1,18,621,1
555,1,1,19,728,1
555,1,1,20,497,1
555,1,1,21,603,1
555,1,1,22,484,1
555,1,1,23,540,1
555,1,1,24,415,1
555,1,1,25,479,1
555,1,1,26,453,1
555,1,1,27,469,1
555,1,1,28,624,1
555,1,1,29,510,1
555,1,1,30,539,1
555,1,1,31,454,1
555,1,1,32,663,1
555,1,1,33,578,1
555,1,1,34,685,1
555,1,1,35,845,1
555,1,1,36,862,1
555,1,1,37,705,1
555,1,1,38,1180,1
555,1,1,39,671,1
555,1,1,40,1389,1
555,1,2,1,838,1
555,1,2,2,1484,1
555,1,2,3,1237,1
555,1,2,4,771,1
555,1,2,5,553,1
555,1,2,6,806,1
555,1,2,7,830,1
555,1,2,8,772,1
555,1,2,9,565,1
555,1,2,10,1437,1
555,1,2,11,619,1
555,1,2,12,910,1
555,1,2,13,644,1
555,1,2,14,738,1
555,1,2,15,575,1
555,1,2,16,802,1
555,1,2,17,957,0
555,1,2,18,739,1
555,1,2,19,878,1
555,1,2,20,828,1
555,1,2,21,736,1
555,1,2,22,728,1
555,1,2,23,712,1
555,1,2,24,854,1
555,1,2,25,662,1
555,1,2,26,753,1
555,1,2,27,655,1
555,1,2,28,1039,0
555,1,2,29,592,1
555,1,2,30,685,1
555,1,2,31,870,1
555,1,2,32,1353,1
555,1,2,33,671,1
555,1,2,34,2181,1
555,1,2,35,2648,1
555,1,2,36,1177,1
555,1,2,37,845,0
555,1,2,38,904,1
555,1,2,39,587,1
555,1,2,40,745,1
552,2,1,1,916,1
552,2,1,2,943,1
552,2,1,3,896,1
552,2,1,4,666,1
552,2,1,5,588,1
552,2,1,6,731,1
552,2,1,7,515,1
552,2,1,8,695,1
552,2,1,9,858,1
552,2,1,10,710,1
552,2,1,11,554,1
552,2,1,12,486,1
552,2,1,13,541,1
552,2,1,14,542,1
552,2,1,15,532,1
552,2,1,16,499,1
552,2,1,17,714,1
552,2,1,18,608,1
552,2,1,19,675,1
552,2,1,20,469,1
552,2,1,21,589,1
552,2,1,22,641,1
552,2,1,23,601,1
552,2,1,24,520,1
552,2,1,25,501,1
552,2,1,26,494,1
552,2,1,27,405,1
552,2,1,28,444,1
552,2,1,29,396,1
552,2,1,30,539,1
552,2,1,31,474,1
552,2,1,32,335,1
552,2,1,33,874,0
552,2,1,34,677,1
552,2,1,35,552,1
552,2,1,36,650,1
552,2,1,37,533,1
552,2,1,38,498,1
552,2,1,39,442,1
552,2,1,40,610,1
552,2,2,1,682,1
552,2,2,2,908,1
552,2,2,3,516,1
552,2,2,4,857,1
552,2,2,5,571,1
552,2,2,6,494,1
552,2,2,7,444,1
552,2,2,8,438,1
552,2,2,9,490,1
552,2,2,10,1067,0
552,2,2,11,711,1
552,2,2,12,500,1
552,2,2,13,676,1
552,2,2,14,508,1
552,2,2,15,661,1
552,2,2,16,526,1
552,2,2,17,1110,0
552,2,2,18,630,1
552,2,2,19,549,1
552,2,2,20,741,1
552,2,2,21,560,1
552,2,2,22,458,1
552,2,2,23,764,1
552,2,2,24,1274,1
552,2,2,25,663,1
552,2,2,26,863,0
552,2,2,27,559,1
552,2,2,28,558,1
552,2,2,29,694,1
552,2,2,30,690,1
552,2,2,31,657,1
552,2,2,32,493,1
552,2,2,33,570,1
552,2,2,34,503,1
552,2,2,35,635,1
552,2,2,36,707,1
552,2,2,37,628,1
552,2,2,38,702,1
552,2,2,39,559,1
552,2,2,40,652,1
546,2,1,1,696,1
546,2,1,2,701,1
546,2,1,3,754,1
546,2,1,4,679,1
546,2,1,5,604,1
546,2,1,6,546,1
546,2,1,7,792,1
546,2,1,8,1625,1
546,2,1,9,681,1
546,2,1,10,789,1
546,2,1,11,778,1
546,2,1,12,1069,1
546,2,1,13,625,1
546,2,1,14,619,1
546,2,1,15,608,1
546,2,1,16,663,1
546,2,1,17,576,1
546,2,1,18,724,1
546,2,1,19,696,1
546,2,1,20,613,1
546,2,1,21,477,1
546,2,1,22,466,1
546,2,1,23,725,1
546,2,1,24,681,1
546,2,1,25,417,1
546,2,1,26,644,1
546,2,1,27,420,1
546,2,1,28,589,1
546,2,1,29,429,1
546,2,1,30,653,1
546,2,1,31,652,1
546,2,1,32,710,1
546,2,1,33,636,1
546,2,1,34,715,1
546,2,1,35,674,1
546,2,1,36,639,1
546,2,1,37,450,1
546,2,1,38,610,1
546,2,1,39,571,1
546,2,1,40,580,1
546,2,2,1,665,1
546,2,2,2,557,1
546,2,2,3,789,1
546,2,2,4,1143,1
546,2,2,5,681,1
546,2,2,6,878,1
546,2,2,7,1024,1
546,2,2,8,803,1
546,2,2,9,964,1
546,2,2,10,753,1
546,2,2,11,841,1
546,2,2,12,620,1
546,2,2,13,612,1
546,2,2,14,617,1
546,2,2,15,817,1
546,2,2,16,1435,1
546,2,2,17,705,1
546,2,2,18,734,1
546,2,2,19,843,1
546,2,2,20,617,1
546,2,2,21,531,1
546,2,2,22,705,1
546,2,2,23,828,1
546,2,2,24,544,1
546,2,2,25,876,1
546,2,2,26,632,1
546,2,2,27,596,1
546,2,2,28,759,1
546,2,2,29,833,1
546,2,2,30,720,1
546,2,2,31,1484,1
546,2,2,32,1277,1
546,2,2,33,977,1
546,2,2,34,1385,1
546,2,2,35,717,1
546,2,2,36,834,1
546,2,2,37,737,1
546,2,2,38,602,1
546,2,2,39,598,1
546,2,2,40,498,1
544,2,1,1,425,1
544,2,1,2,454,1
544,2,1,3,426,1
544,2,1,4,485,1
544,2,1,5,466,1
544,2,1,6,705,1
544,2,1,7,416,1
544,2,1,8,496,1
544,2,1,9,477,1
544,2,1,10,455,1
544,2,1,11,377,1
544,2,1,12,466,1
544,2,1,13,496,1
544,2,1,14,675,1
544,2,1,15,426,1
544,2,1,16,436,1
544,2,1,17,396,1
544,2,1,18,387,1
544,2,1,19,465,1
544,2,1,20,367,1
544,2,1,21,805,0
544,2,1,22,855,0
544,2,1,23,550,1
544,2,1,24,366,1
544,2,1,25,437,1
544,2,1,26,426,1
544,2,1,27,426,1
544,2,1,28,615,1
544,2,1,29,496,1
544,2,1,30,506,1
544,2,1,31,486,1
544,2,1,32,796,1
544,2,1,33,426,1
544,2,1,34,496,1
544,2,1,35,606,1
544,2,1,36,496,1
544,2,1,37,486,1
544,2,1,38,447,1
544,2,1,39,485,1
544,2,1,40,426,1
544,2,2,1,467,1
544,2,2,2,376,1
544,2,2,3,465,1
544,2,2,4,436,1
544,2,2,5,356,1
544,2,2,6,356,1
544,2,2,7,505,1
544,2,2,8,536,1
544,2,2,9,717,1
544,2,2,10,756,1
544,2,2,11,575,1
544,2,2,12,546,1
544,2,2,13,585,1
544,2,2,14,416,1
544,2,2,15,416,1
544,2,2,16,576,1
544,2,2,17,477,1
544,2,2,18,426,1
544,2,2,19,346,1
544,2,2,20,436,1
544,2,2,21,426,1
544,2,2,22,585,1
544,2,2,23,568,1
544,2,2,24,406,1
544,2,2,25,506,1
544,2,2,26,496,1
544,2,2,27,477,1
544,2,2,28,465,1
544,2,2,29,386,1
544,2,2,30,457,1
544,2,2,31,705,0
544,2,2,32,634,1
544,2,2,33,506,1
544,2,2,34,506,1
544,2,2,35,406,1
544,2,2,36,475,1
544,2,2,37,396,1
544,2,2,38,496,1
544,2,2,39,516,1
544,2,2,40,617,1
548,2,1,1,540,1
548,2,1,2,529,1
548,2,1,3,481,1
548,2,1,4,443,1
548,2,1,5,440,1
548,2,1,6,381,1
548,2,1,7,633,1
548,2,1,8,451,1
548,2,1,9,489,1
548,2,1,10,418,1
548,2,1,11,619,1
548,2,1,12,526,1
548,2,1,13,443,1
548,2,1,14,434,1
548,2,1,15,382,1
548,2,1,16,545,1
548,2,1,17,508,1
548,2,1,18,573,1
548,2,1,19,570,1
548,2,1,20,499,1
548,2,1,21,435,1
548,2,1,22,445,1
548,2,1,23,407,1
548,2,1,24,488,1
548,2,1,25,474,1
548,2,1,26,503,1
548,2,1,27,526,1
548,2,1,28,480,1
548,2,1,29,486,1
548,2,1,30,488,1
548,2,1,31,484,1
548,2,1,32,548,1
548,2,1,33,423,1
548,2,1,34,436,1
548,2,1,35,476,1
548,2,1,36,415,1
548,2,1,37,511,1
548,2,1,38,402,1
548,2,1,39,435,1
548,2,1,40,506,1
548,2,2,1,678,1
548,2,2,2,732,1
548,2,2,3,553,1
548,2,2,4,428,1
548,2,2,5,595,1
548,2,2,6,499,1
548,2,2,7,465,1
548,2,2,8,774,1
548,2,2,9,834,1
548,2,2,10,464,1
548,2,2,11,360,1
548,2,2,12,511,1
548,2,2,13,500,1
548,2,2,14,525,1
548,2,2,15,448,1
548,2,2,16,449,1
548,2,2,17,457,1
548,2,2,18,561,1
548,2,2,19,514,1
548,2,2,20,975,0
548,2,2,21,559,1
548,2,2,22,495,1
548,2,2,23,589,1
548,2,2,24,700,1
548,2,2,25,514,1
548,2,2,26,393,1
548,2,2,27,411,1
548,2,2,28,900,1
548,2,2,29,687,1
548,2,2,30,648,1
548,2,2,31,683,0
548,2,2,32,507,1
548,2,2,33,403,1
548,2,2,34,361,1
548,2,2,35,718,1
548,2,2,36,561,1
548,2,2,37,457,1
548,2,2,38,468,1
548,2,2,39,490,1
548,2,2,40,619,1
536,2,1,1,5190,1
536,2,1,2,1055,1
536,2,1,3,539,1
536,2,1,4,1692,1
536,2,1,5,1342,0
536,2,1,6,930,1
536,2,1,7,584,1
536,2,1,8,1546,1
536,2,1,9,1591,1
536,2,1,10,1024,1
536,2,1,11,639,1
536,2,1,12,738,1
536,2,1,13,1054,1
536,2,1,14,828,1
536,2,1,15,621,1
536,2,1,16,756,1
536,2,1,17,617,1
536,2,1,18,1500,0
536,2,1,19,1323,1
536,2,1,20,959,1
536,2,1,21,726,1
536,2,1,22,607,1
536,2,1,23,611,1
536,2,1,24,1269,0
536,2,1,25,1294,1
536,2,1,26,1163,0
536,2,1,27,604,1
536,2,1,28,1014,1
536,2,1,29,751,1
536,2,1,30,873,1
536,2,1,31,458,1
536,2,1,32,1156,1
536,2,1,33,794,1
536,2,1,34,723,1
536,2,1,35,745,1
536,2,1,36,903,1
536,2,1,37,674,1
536,2,1,38,542,1
536,2,1,39,820,1
536,2,1,40,628,1
536,2,2,1,930,1
536,2,2,2,1294,1
536,2,2,3,896,1
536,2,2,4,769,1
536,2,2,5,992,1
536,2,2,6,802,1
536,2,2,7,781,1
536,2,2,8,910,1
536,2,2,9,1248,1
536,2,2,10,773,1
536,2,2,11,702,1
536,2,2,12,1134,1
536,2,2,13,976,1
536,2,2,14,777,1
536,2,2,15,658,1
536,2,2,16,676,1
536,2,2,17,1139,1
536,2,2,18,1372,0
536,2,2,19,784,1
536,2,2,20,672,1
536,2,2,21,812,1
536,2,2,22,2319,1
536,2,2,23,813,1
536,2,2,24,719,1
536,2,2,25,881,1
536,2,2,26,872,1
536,2,2,27,671,1
536,2,2,28,990,1
536,2,2,29,1209,1
536,2,2,30,1318,1
536,2,2,31,586,1
536,2,2,32,2291,1
536,2,2,33,750,1
536,2,2,34,766,1
536,2,2,35,1051,1
536,2,2,36,998,1
536,2,2,37,1258,0
536,2,2,38,1166,0
536,2,2,39,758,1
536,2,2,40,1384,0
538,2,1,1,1312,1
538,2,1,2,732,1
538,2,1,3,465,1
538,2,1,4,616,1
538,2,1,5,489,1
538,2,1,6,487,1
538,2,1,7,421,1
538,2,1,8,446,1
538,2,1,9,407,1
538,2,1,10,384,1
538,2,1,11,451,1
538,2,1,12,354,1
538,2,1,13,438,1
538,2,1,14,551,1
538,2,1,15,434,1
538,2,1,16,427,1
538,2,1,17,676,1
538,2,1,18,698,1
538,2,1,19,536,1
538,2,1,20,372,1
538,2,1,21,415,1
538,2,1,22,368,1
538,2,1,23,597,1
538,2,1,24,374,1
538,2,1,25,481,1
538,2,1,26,536,1
538,2,1,27,524,1
538,2,1,28,425,1
538,2,1,29,578,1
538,2,1,30,485,1
538,2,1,31,435,1
538,2,1,32,468,1
538,2,1,33,442,1
538,2,1,34,443,1
538,2,1,35,435,1
538,2,1,36,612,1
538,2,1,37,621,1
538,2,1,38,581,1
538,2,1,39,441,1
538,2,1,40,553,1
538,2,2,1,1096,1
538,2,2,2,716,1
538,2,2,3,769,1
538,2,2,4,668,1
538,2,2,5,730,1
538,2,2,6,766,1
538,2,2,7,680,1
538,2,2,8,559,1
538,2,2,9,562,1
538,2,2,10,654,1
538,2,2,11,501,1
538,2,2,12,674,1
538,2,2,13,689,1
538,2,2,14,856,1
538,2,2,15,686,1
538,2,2,16,964,1
538,2,2,17,662,1
538,2,2,18,526,1
538,2,2,19,427,1
538,2,2,20,476,1
538,2,2,21,387,1
538,2,2,22,453,1
538,2,2,23,357,1
538,2,2,24,609,1
538,2,2,25,370,1
538,2,2,26,421,1
538,2,2,27,686,1
538,2,2,28,1116,0
538,2,2,29,552,1
538,2,2,30,891,1
538,2,2,31,401,1
538,2,2,32,522,1
538,2,2,33,399,1
538,2,2,34,697,1
538,2,2,35,639,1
538,2,2,36,688,1
538,2,2,37,557,1
538,2,2,38,760,1
538,2,2,39,491,1
538,2,2,40,522,1
526,2,1,1,2356,1
526,2,1,2,1053,1
526,2,1,3,763,1
526,2,1,4,863,1
526,2,1,5,774,1
526,2,1,6,715,1
526,2,1,7,893,1
526,2,1,8,872,1
526,2,1,9,683,1
526,2,1,10,557,1
526,2,1,11,709,1
526,2,1,12,694,1
526,2,1,13,801,1
526,2,1,14,672,1
526,2,1,15,744,1
526,2,1,16,603,1
526,2,1,17,688,1
526,2,1,18,832,1
526,2,1,19,662,1
526,2,1,20,643,1
526,2,1,21,628,1
526,2,1,22,583,1
526,2,1,23,633,1
526,2,1,24,597,1
526,2,1,25,607,1
526,2,1,26,663,1
526,2,1,27,762,1
526,2,1,28,623,1
526,2,1,29,682,1
526,2,1,30,655,1
526,2,1,31,501,1
526,2,1,32,792,1
526,2,1,33,667,1
526,2,1,34,1012,1
526,2,1,35,668,1
526,2,1,36,723,1
526,2,1,37,641,1
526,2,1,38,724,1
526,2,1,39,652,1
526,2,1,40,740,1
526,2,2,1,787,1
526,2,2,2,861,1
526,2,2,3,703,1
526,2,2,4,927,1
526,2,2,5,767,1
526,2,2,6,754,1
526,2,2,7,692,1
526,2,2,8,653,1
526,2,2,9,673,1
526,2,2,10,923,1
526,2,2,11,710,1
526,2,2,12,803,1
526,2,2,13,654,1
526,2,2,14,663,1
526,2,2,15,826,1
526,2,2,16,733,1
526,2,2,17,652,1
526,2,2,18,582,1
526,2,2,19,618,1
526,2,2,20,628,1
526,2,2,21,733,1
526,2,2,22,957,1
526,2,2,23,754,1
526,2,2,24,712,1
526,2,2,25,703,1
526,2,2,26,624,1
526,2,2,27,654,1
526,2,2,28,553,1
526,2,2,29,702,1
526,2,2,30,574,1
526,2,2,31,682,1
526,2,2,32,674,1
526,2,2,33,642,1
526,2,2,34,622,1
526,2,2,35,933,1
526,2,2,36,566,1
526,2,2,37,637,1
526,2,2,38,644,1
526,2,2,39,672,1
526,2,2,40,615,1
502,2,1,1,826,1
502,2,1,2,451,1
502,2,1,3,541,1
502,2,1,4,474,1
502,2,1,5,599,1
502,2,1,6,495,1
502,2,1,7,435,1
502,2,1,8,481,1
502,2,1,9,1355,1
502,2,1,10,561,1
502,2,1,11,625,1
502,2,1,12,524,1
502,2,1,13,448,1
502,2,1,14,431,1
502,2,1,15,374,1
502,2,1,16,390,1
502,2,1,17,413,1
502,2,1,18,413,1
502,2,1,19,476,1
502,2,1,20,366,1
502,2,1,21,547,1
502,2,1,22,889,0
502,2,1,23,570,1
502,2,1,24,575,1
502,2,1,25,411,1
502,2,1,26,494,1
502,2,1,27,334,1
502,2,1,28,409,1
502,2,1,29,524,1
502,2,1,30,1149,0
502,2,1,31,352,1
502,2,1,32,328,1
502,2,1,33,441,1
502,2,1,34,453,1
502,2,1,35,363,1
502,2,1,36,414,1
502,2,1,37,445,1
502,2,1,38,389,1
502,2,1,39,522,1
502,2,1,40,451,1
502,2,2,1,985,1
502,2,2,2,468,1
502,2,2,3,616,1
502,2,2,4,466,1
502,2,2,5,717,1
502,2,2,6,601,1
502,2,2,7,465,1
502,2,2,8,645,1
502,2,2,9,495,1
502,2,2,10,462,1
502,2,2,11,536,1
502,2,2,12,456,1
502,2,2,13,493,1
502,2,2,14,467,1
502,2,2,15,1023,0
502,2,2,16,486,1
502,2,2,17,606,1
502,2,2,18,505,1
502,2,2,19,763,1
502,2,2,20,585,1
502,2,2,21,680,1
502,2,2,22,531,1
502,2,2,23,599,1
502,2,2,24,445,1
502,2,2,25,559,1
502,2,2,26,599,1
502,2,2,27,608,1
502,2,2,28,1148,0
502,2,2,29,579,1
502,2,2,30,528,1
502,2,2,31,453,1
502,2,2,32,678,1
502,2,2,33,723,1
502,2,2,34,450,1
502,2,2,35,965,0
502,2,2,36,460,1
502,2,2,37,427,1
502,2,2,38,594,1
502,2,2,39,509,1
502,2,2,40,573,1
514,2,1,1,1009,1
514,2,1,2,594,1
514,2,1,3,585,1
514,2,1,4,516,1
514,2,1,5,521,1
514,2,1,6,902,1
514,2,1,7,507,1
514,2,1,8,509,1
514,2,1,9,644,1
514,2,1,10,537,1
514,2,1,11,2394,1
514,2,1,12,966,1
514,2,1,13,765,1
514,2,1,14,815,1
514,2,1,15,916,1
514,2,1,16,1196,1
514,2,1,17,842,1
514,2,1,18,622,1
514,2,1,19,588,1
514,2,1,20,652,1
514,2,1,21,1005,1
514,2,1,22,1121,1
514,2,1,23,585,1
514,2,1,24,721,1
514,2,1,25,769,1
514,2,1,26,639,1
514,2,1,27,731,1
514,2,1,28,706,1
514,2,1,29,880,1
514,2,1,30,774,1
514,2,1,31,616,1
514,2,1,32,738,1
514,2,1,33,630,1
514,2,1,34,564,1
514,2,1,35,1061,1
514,2,1,36,713,1
514,2,1,37,731,1
514,2,1,38,1431,0
514,2,1,39,1434,1
514,2,1,40,1289,1
514,2,2,1,1786,1
514,2,2,2,2430,1
514,2,2,3,1304,1
514,2,2,4,870,1
514,2,2,5,1030,1
514,2,2,6,1247,1
514,2,2,7,944,1
514,2,2,8,1969,1
514,2,2,9,1007,1
514,2,2,10,993,1
514,2,2,11,1305,1
514,2,2,12,778,1
514,2,2,13,703,1
514,2,2,14,1049,1
514,2,2,15,905,1
514,2,2,16,1421,1
514,2,2,17,845,1
514,2,2,18,1278,1
514,2,2,19,860,1
514,2,2,20,499,1
514,2,2,21,771,1
514,2,2,22,489,1
514,2,2,23,741,1
514,2,2,24,629,1
514,2,2,25,613,1
514,2,2,26,592,1
514,2,2,27,535,1
514,2,2,28,791,1
514,2,2,29,805,1
514,2,2,30,1525,1
514,2,2,31,745,1
514,2,2,32,801,1
514,2,2,33,889,1
514,2,2,34,1186,1
514,2,2,35,1062,1
514,2,2,36,805,1
514,2,2,37,722,1
514,2,2,38,659,1
514,2,2,39,700,1
514,2,2,40,513,1
472,2,1,1,669,1
472,2,1,2,352,1
472,2,1,3,482,1
472,2,1,4,499,1
472,2,1,5,437,1
472,2,1,6,405,1
472,2,1,7,420,1
472,2,1,8,481,1
472,2,1,9,394,1
472,2,1,10,423,1
472,2,1,11,472,1
472,2,1,12,423,1
472,2,1,13,335,1
472,2,1,14,412,1
472,2,1,15,413,1
472,2,1,16,433,1
472,2,1,17,435,1
472,2,1,18,484,1
472,2,1,19,391,1
472,2,1,20,401,1
472,2,1,21,558,1
472,2,1,22,531,1
472,2,1,23,407,1
472,2,1,24,476,1
472,2,1,25,405,1
472,2,1,26,425,1
472,2,1,27,437,1
472,2,1,28,414,1
472,2,1,29,388,1
472,2,1,30,495,1
472,2,1,31,402,1
472,2,1,32,419,1
472,2,1,33,434,1
472,2,1,34,455,1
472,2,1,35,563,1
472,2,1,36,533,1
472,2,1,37,397,1
472,2,1,38,439,1
472,2,1,39,394,1
472,2,1,40,393,1
472,2,2,1,737,1
472,2,2,2,692,1
472,2,2,3,538,1
472,2,2,4,512,1
472,2,2,5,511,1
472,2,2,6,510,1
472,2,2,7,458,1
472,2,2,8,513,1
472,2,2,9,579,1
472,2,2,10,755,1
472,2,2,11,952,1
472,2,2,12,542,1
472,2,2,13,608,1
472,2,2,14,850,1
472,2,2,15,465,1
472,2,2,16,663,1
472,2,2,17,775,1
472,2,2,18,786,1
472,2,2,19,1125,0
472,2,2,20,737,1
472,2,2,21,421,1
472,2,2,22,691,0
472,2,2,23,710,1
472,2,2,24,556,1
472,2,2,25,438,1
472,2,2,26,653,1
472,2,2,27,487,1
472,2,2,28,554,1
472,2,2,29,550,1
472,2,2,30,656,1
472,2,2,31,583,1
472,2,2,32,680,1
472,2,2,33,693,1
472,2,2,34,764,1
472,2,2,35,713,1
472,2,2,36,1063,1
472,2,2,37,828,1
472,2,2,38,863,1
472,2,2,39,572,1
472,2,2,40,687,1
513,1,1,1,888,1
513,1,1,2,659,1
513,1,1,3,454,1
513,1,1,4,500,1
513,1,1,5,678,1
513,1,1,6,437,1
513,1,1,7,841,0
513,1,1,8,489,1
513,1,1,9,431,1
513,1,1,10,390,1
513,1,1,11,476,1
513,1,1,12,485,1
513,1,1,13,557,1
513,1,1,14,503,1
513,1,1,15,480,1
513,1,1,16,550,1
513,1,1,17,487,1
513,1,1,18,549,1
513,1,1,19,646,1
513,1,1,20,669,1
513,1,1,21,568,1
513,1,1,22,499,1
513,1,1,23,485,1
513,1,1,24,487,1
513,1,1,25,430,1
513,1,1,26,500,1
513,1,1,27,364,1
513,1,1,28,421,1
513,1,1,29,392,1
513,1,1,30,454,1
513,1,1,31,440,1
513,1,1,32,376,1
513,1,1,33,375,1
513,1,1,34,927,0
513,1,1,35,485,1
513,1,1,36,538,1
513,1,1,37,621,1
513,1,1,38,541,1
513,1,1,39,595,1
513,1,1,40,941,1
513,1,2,1,526,1
513,1,2,2,1792,1
513,1,2,3,504,1
513,1,2,4,592,1
513,1,2,5,665,1
513,1,2,6,873,1
513,1,2,7,713,1
513,1,2,8,640,1
513,1,2,9,966,1
513,1,2,10,674,1
513,1,2,11,926,1
513,1,2,12,627,1
513,1,2,13,537,1
513,1,2,14,684,1
513,1,2,15,586,1
513,1,2,16,680,1
513,1,2,17,500,1
513,1,2,18,1002,0
513,1,2,19,667,1
513,1,2,20,656,1
513,1,2,21,484,1
513,1,2,22,467,1
513,1,2,23,782,1
513,1,2,24,695,1
513,1,2,25,448,1
513,1,2,26,443,1
513,1,2,27,436,1
513,1,2,28,550,1
513,1,2,29,728,1
513,1,2,30,501,1
513,1,2,31,376,1
513,1,2,32,627,1
513,1,2,33,568,1
513,1,2,34,861,0
513,1,2,35,578,1
513,1,2,36,608,1
513,1,2,37,626,1
513,1,2,38,647,1
513,1,2,39,602,1
513,1,2,40,780,1
549,1,1,1,1734,1
549,1,1,2,980,1
549,1,1,3,777,1
549,1,1,4,1577,1
549,1,1,5,845,1
549,1,1,6,634,1
549,1,1,7,3511,0
549,1,1,8,750,1
549,1,1,9,668,1
549,1,1,10,625,1
549,1,1,11,636,1
549,1,1,12,660,1
549,1,1,13,942,1
549,1,1,14,940,1
549,1,1,15,838,1
549,1,1,16,812,1
549,1,1,17,675,1
549,1,1,18,1040,1
549,1,1,19,487,1
549,1,1,20,680,1
549,1,1,21,545,1
549,1,1,22,618,1
549,1,1,23,505,1
549,1,1,24,439,1
549,1,1,25,618,1
549,1,1,26,669,1
549,1,1,27,586,1
549,1,1,28,547,1
549,1,1,29,584,1
549,1,1,30,545,1
549,1,1,31,1105,1
549,1,1,32,595,1
549,1,1,33,506,1
549,1,1,34,570,1
549,1,1,35,808,1
549,1,1,36,568,1
549,1,1,37,466,1
549,1,1,38,468,1
549,1,1,39,477,1
549,1,1,40,489,1
549,1,2,1,871,1
549,1,2,2,1488,1
549,1,2,3,1106,1
549,1,2,4,935,1
549,1,2,5,867,1
549,1,2,6,764,1
549,1,2,7,646,1
549,1,2,8,1018,1
549,1,2,9,939,1
549,1,2,10,1278,1
549,1,2,11,996,1
549,1,2,12,1012,1
549,1,2,13,759,1
549,1,2,14,816,1
549,1,2,15,720,1
549,1,2,16,910,1
549,1,2,17,935,1
549,1,2,18,877,1
549,1,2,19,661,1
549,1,2,20,1122,1
549,1,2,21,899,1
549,1,2,22,1091,1
549,1,2,23,776,1
549,1,2,24,803,1
549,1,2,25,747,1
549,1,2,26,764,1
549,1,2,27,774,1
549,1,2,28,1207,1
549,1,2,29,584,1
549,1,2,30,726,1
549,1,2,31,657,1
549,1,2,32,683,1
549,1,2,33,662,1
549,1,2,34,1102,1
549,1,2,35,661,1
549,1,2,36,621,1
549,1,2,37,577,1
549,1,2,38,1103,1
549,1,2,39,690,1
549,1,2,40,710,1
521,1,1,1,792,1
521,1,1,2,580,1
521,1,1,3,550,1
521,1,1,4,541,1
521,1,1,5,596,1
521,1,1,6,531,1
521,1,1,7,643,1
521,1,1,8,631,1
521,1,1,9,603,1
521,1,1,10,538,1
521,1,1,11,542,1
521,1,1,12,600,1
521,1,1,13,567,1
521,1,1,14,543,1
521,1,1,15,576,1
521,1,1,16,586,1
521,1,1,17,736,1
521,1,1,18,523,1
521,1,1,19,468,1
521,1,1,20,613,1
521,1,1,21,535,1
521,1,1,22,512,1
521,1,1,23,630,1
521,1,1,24,606,1
521,1,1,25,534,1
521,1,1,26,441,1
521,1,1,27,530,1
521,1,1,28,419,1
521,1,1,29,492,1
521,1,1,30,429,1
521,1,1,31,863,1
521,1,1,32,648,1
521,1,1,33,422,1
521,1,1,34,519,1
521,1,1,35,523,1
521,1,1,36,529,1
521,1,1,37,485,1
521,1,1,38,523,1
521,1,1,39,535,1
521,1,1,40,1129,0
521,1,2,1,1606,1
521,1,2,2,884,1
521,1,2,3,1145,1
521,1,2,4,699,1
521,1,2,5,752,1
521,1,2,6,895,1
521,1,2,7,675,1
521,1,2,8,674,1
521,1,2,9,594,1
521,1,2,10,532,1
521,1,2,11,664,1
521,1,2,12,510,1
521,1,2,13,480,1
521,1,2,14,535,1
521,1,2,15,438,1
521,1,2,16,504,1
521,1,2,17,1533,0
521,1,2,18,619,1
521,1,2,19,548,1
521,1,2,20,648,1
521,1,2,21,668,1
521,1,2,22,583,1
521,1,2,23,634,1
521,1,2,24,612,1
521,1,2,25,543,1
521,1,2,26,596,1
521,1,2,27,599,1
521,1,2,28,762,1
521,1,2,29,795,1
521,1,2,30,502,1
521,1,2,31,649,1
521,1,2,32,792,1
521,1,2,33,706,1
521,1,2,34,494,1
521,1,2,35,603,1
521,1,2,36,1057,0
521,1,2,37,643,1
521,1,2,38,916,0
521,1,2,39,669,1
521,1,2,40,678,1
543,1,1,1,2266,1
543,1,1,2,717,1
543,1,1,3,610,1
543,1,1,4,770,1
543,1,1,5,706,1
543,1,1,6,655,1
543,1,1,7,624,1
543,1,1,8,669,1
543,1,1,9,617,1
543,1,1,10,652,1
543,1,1,11,676,1
543,1,1,12,1746,1
543,1,1,13,1045,1
543,1,1,14,633,1
543,1,1,15,679,1
543,1,1,16,602,1
543,1,1,17,747,1
543,1,1,18,709,1
543,1,1,19,708,1
543,1,1,20,646,1
543,1,1,21,752,1
543,1,1,22,620,1
543,1,1,23,683,1
543,1,1,24,680,1
543,1,1,25,618,1
543,1,1,26,1140,1
543,1,1,27,742,1
543,1,1,28,665,1
543,1,1,29,659,1
543,1,1,30,597,1
543,1,1,31,687,1
543,1,1,32,738,1
543,1,1,33,652,1
543,1,1,34,800,1
543,1,1,35,669,1
543,1,1,36,657,1
543,1,1,37,714,1
543,1,1,38,627,1
543,1,1,39,776,1
543,1,1,40,638,1
543,1,2,1,1885,1
543,1,2,2,832,1
543,1,2,3,795,1
543,1,2,4,1829,1
543,1,2,5,963,1
543,1,2,6,1204,1
543,1,2,7,1005,1
543,1,2,8,854,1
543,1,2,9,743,1
543,1,2,10,804,1
543,1,2,11,853,1
543,1,2,12,795,1
543,1,2,13,710,1
543,1,2,14,1002,1
543,1,2,15,761,1
543,1,2,16,838,1
543,1,2,17,677,1
543,1,2,18,2157,1
543,1,2,19,713,1
543,1,2,20,880,1
543,1,2,21,881,1
543,1,2,22,712,1
543,1,2,23,1197,1
543,1,2,24,1478,0
543,1,2,25,1074,1
543,1,2,26,1775,1
543,1,2,27,770,1
543,1,2,28,977,1
543,1,2,29,908,1
543,1,2,30,646,1
543,1,2,31,719,1
543,1,2,32,791,1
543,1,2,33,798,1
543,1,2,34,784,1
543,1,2,35,863,1
543,1,2,36,830,1
543,1,2,37,900,1
543,1,2,38,872,1
543,1,2,39,977,1
543,1,2,40,2613,1
524,2,1,1,773,1
524,2,1,2,583,1
524,2,1,3,609,1
524,2,1,4,722,1
524,2,1,5,527,1
524,2,1,6,403,1
524,2,1,7,437,1
524,2,1,8,413,1
524,2,1,9,527,1
524,2,1,10,500,1
524,2,1,11,418,1
524,2,1,12,411,1
524,2,1,13,565,1
524,2,1,14,457,1
524,2,1,15,576,1
524,2,1,16,603,1
524,2,1,17,668,1
524,2,1,18,466,1
524,2,1,19,625,1
524,2,1,20,627,1
524,2,1,21,627,1
524,2,1,22,483,1
524,2,1,23,570,1
524,2,1,24,436,1
524,2,1,25,637,1
524,2,1,26,621,1
524,2,1,27,525,1
524,2,1,28,394,1
524,2,1,29,525,1
524,2,1,30,434,1
524,2,1,31,426,1
524,2,1,32,547,1
524,2,1,33,743,1
524,2,1,34,403,1
524,2,1,35,485,1
524,2,1,36,523,1
524,2,1,37,465,1
524,2,1,38,456,1
524,2,1,39,463,1
524,2,1,40,439,1
524,2,2,1,713,1
524,2,2,2,528,1
524,2,2,3,508,1
524,2,2,4,705,1
524,2,2,5,614,1
524,2,2,6,416,1
524,2,2,7,481,1
524,2,2,8,655,1
524,2,2,9,550,1
524,2,2,10,786,1
524,2,2,11,564,1
524,2,2,12,639,1
524,2,2,13,439,1
524,2,2,14,392,1
524,2,2,15,522,1
524,2,2,16,655,1
524,2,2,17,478,1
524,2,2,18,709,1
524,2,2,19,786,1
524,2,2,20,588,1
524,2,2,21,598,1
524,2,2,22,537,1
524,2,2,23,588,1
524,2,2,24,454,1
524,2,2,25,462,1
524,2,2,26,509,1
524,2,2,27,507,1
524,2,2,28,601,1
524,2,2,29,514,1
524,2,2,30,1024,1
524,2,2,31,655,1
524,2,2,32,591,1
524,2,2,33,561,1
524,2,2,34,436,1
524,2,2,35,556,1
524,2,2,36,473,1
524,2,2,37,463,1
524,2,2,38,575,1
524,2,2,39,609,1
524,2,2,40,474,1
522,2,1,1,615,1
522,2,1,2,556,1
522,2,1,3,532,1
522,2,1,4,479,1
522,2,1,5,634,1
522,2,1,6,549,1
522,2,1,7,585,1
522,2,1,8,633,1
522,2,1,9,551,1
522,2,1,10,534,1
522,2,1,11,434,1
522,2,1,12,532,1
522,2,1,13,453,1
522,2,1,14,1079,0
522,2,1,15,874,1
522,2,1,16,540,1
522,2,1,17,471,1
522,2,1,18,528,1
522,2,1,19,489,1
522,2,1,20,433,1
522,2,1,21,460,1
522,2,1,22,524,1
522,2,1,23,583,1
522,2,1,24,600,1
522,2,1,25,609,1
522,2,1,26,600,1
522,2,1,27,652,1
522,2,1,28,672,1
522,2,1,29,698,1
522,2,1,30,568,1
522,2,1,31,655,1
522,2,1,32,552,1
522,2,1,33,733,1
522,2,1,34,661,1
522,2,1,35,824,1
522,2,1,36,746,1
522,2,1,37,597,1
522,2,1,38,723,1
522,2,1,39,556,1
522,2,1,40,576,1
522,2,2,1,752,1
522,2,2,2,531,1
522,2,2,3,695,1
522,2,2,4,434,1
522,2,2,5,503,1
522,2,2,6,371,1
522,2,2,7,416,1
522,2,2,8,796,1
522,2,2,9,553,1
522,2,2,10,1044,0
522,2,2,11,876,1
522,2,2,12,575,1
522,2,2,13,903,1
522,2,2,14,1217,0
522,2,2,15,554,1
522,2,2,16,524,1
522,2,2,17,465,1
522,2,2,18,419,1
522,2,2,19,471,1
522,2,2,20,393,1
522,2,2,21,381,1
522,2,2,22,461,1
522,2,2,23,424,1
522,2,2,24,587,1
522,2,2,25,475,1
522,2,2,26,381,1
522,2,2,27,814,1
522,2,2,28,1370,1
522,2,2,29,691,1
522,2,2,30,819,1
522,2,2,31,780,1
522,2,2,32,911,1
522,2,2,33,628,1
522,2,2,34,693,1
522,2,2,35,682,1
522,2,2,36,843,1
522,2,2,37,548,1
522,2,2,38,647,1
522,2,2,39,489,1
522,2,2,40,720,1
535,1,1,1,1125,1
535,1,1,2,752,1
535,1,1,3,602,1
535,1,1,4,497,1
535,1,1,5,476,1
535,1,1,6,1085,1
535,1,1,7,632,1
535,1,1,8,555,1
535,1,1,9,475,1
535,1,1,10,505,1
535,1,1,11,584,1
535,1,1,12,429,1
535,1,1,13,561,1
535,1,1,14,386,1
535,1,1,15,518,1
535,1,1,16,447,1
535,1,1,17,387,1
535,1,1,18,431,1
535,1,1,19,640,1
535,1,1,20,359,1
535,1,1,21,543,1
535,1,1,22,655,1
535,1,1,23,573,1
535,1,1,24,387,1
535,1,1,25,525,1
535,1,1,26,583,1
535,1,1,27,427,1
535,1,1,28,495,1
535,1,1,29,796,0
535,1,1,30,602,1
535,1,1,31,649,1
535,1,1,32,639,1
535,1,1,33,450,1
535,1,1,34,631,1
535,1,1,35,455,1
535,1,1,36,404,1
535,1,1,37,883,1
535,1,1,38,567,1
535,1,1,39,368,1
535,1,1,40,651,1
535,1,2,1,627,1
535,1,2,2,1018,0
535,1,2,3,763,1
535,1,2,4,729,1
535,1,2,5,543,1
535,1,2,6,844,0
535,1,2,7,666,1
535,1,2,8,806,1
535,1,2,9,562,1
535,1,2,10,866,1
535,1,2,11,596,1
535,1,2,12,851,1
535,1,2,13,643,1
535,1,2,14,630,1
535,1,2,15,436,1
535,1,2,16,844,1
535,1,2,17,589,1
535,1,2,18,783,1
535,1,2,19,580,1
535,1,2,20,444,1
535,1,2,21,472,1
535,1,2,22,462,1
535,1,2,23,520,1
535,1,2,24,706,1
535,1,2,25,622,1
535,1,2,26,699,1
535,1,2,27,483,1
535,1,2,28,583,1
535,1,2,29,438,1
535,1,2,30,511,1
535,1,2,31,465,1
535,1,2,32,563,1
535,1,2,33,595,1
535,1,2,34,894,0
535,1,2,35,637,1
535,1,2,36,574,1
535,1,2,37,534,1
535,1,2,38,802,1
535,1,2,39,467,1
535,1,2,40,466,1
531,1,1,1,1092,1
531,1,1,2,1092,1
531,1,1,3,1056,1
531,1,1,4,846,1
531,1,1,5,990,1
531,1,1,6,798,1
531,1,1,7,849,1
531,1,1,8,946,1
531,1,1,9,768,1
531,1,1,10,1004,1
531,1,1,11,703,1
531,1,1,12,874,1
531,1,1,13,893,1
531,1,1,14,1030,1
531,1,1,15,726,1
531,1,1,16,821,1
531,1,1,17,783,1
531,1,1,18,772,1
531,1,1,19,878,1
531,1,1,20,728,1
531,1,1,21,780,1
531,1,1,22,765,1
531,1,1,23,801,1
531,1,1,24,744,1
531,1,1,25,776,1
531,1,1,26,680,1
531,1,1,27,701,1
531,1,1,28,675,1
531,1,1,29,796,1
531,1,1,30,782,1
531,1,1,31,757,1
531,1,1,32,785,1
531,1,1,33,920,1
531,1,1,34,859,1
531,1,1,35,730,1
531,1,1,36,680,1
531,1,1,37,720,1
531,1,1,38,678,1
531,1,1,39,770,1
531,1,1,40,666,1
531,1,2,1,1130,1
531,1,2,2,862,1
531,1,2,3,661,1
531,1,2,4,967,1
531,1,2,5,655,1
531,1,2,6,584,1
531,1,2,7,689,1
531,1,2,8,1909,1
531,1,2,9,733,1
531,1,2,10,814,1
531,1,2,11,1636,0
531,1,2,12,741,1
531,1,2,13,679,1
531,1,2,14,793,1
531,1,2,15,775,1
531,1,2,16,1011,1
531,1,2,17,1095,1
531,1,2,18,698,1
531,1,2,19,1073,1
531,1,2,20,743,1
531,1,2,21,649,1
531,1,2,22,683,1
531,1,2,23,709,1
531,1,2,24,582,1
531,1,2,25,1081,1
531,1,2,26,745,1
531,1,2,27,875,1
531,1,2,28,734,1
531,1,2,29,871,1
531,1,2,30,797,1
531,1,2,31,785,1
531,1,2,32,689,1
531,1,2,33,710,1
531,1,2,34,698,1
531,1,2,35,765,1
531,1,2,36,645,1
531,1,2,37,717,1
531,1,2,38,648,1
531,1,2,39,726,1
531,1,2,40,759,1
528,2,1,1,656,1
528,2,1,2,648,1
528,2,1,3,547,1
528,2,1,4,741,1
528,2,1,5,452,1
528,2,1,6,465,1
528,2,1,7,462,1
528,2,1,8,503,1
528,2,1,9,766,0
528,2,1,10,464,1
528,2,1,11,463,1
528,2,1,12,382,1
528,2,1,13,369,1
528,2,1,14,374,1
528,2,1,15,1016,0
528,2,1,16,827,0
528,2,1,17,443,1
528,2,1,18,474,1
528,2,1,19,383,1
528,2,1,20,766,1
528,2,1,21,474,1
528,2,1,22,457,1
528,2,1,23,419,1
528,2,1,24,479,1
528,2,1,25,539,1
528,2,1,26,436,1
528,2,1,27,400,1
528,2,1,28,457,1
528,2,1,29,478,1
528,2,1,30,379,1
528,2,1,31,451,1
528,2,1,32,437,1
528,2,1,33,382,1
528,2,1,34,418,1
528,2,1,35,377,1
528,2,1,36,476,1
528,2,1,37,851,0
528,2,1,38,583,1
528,2,1,39,641,0
528,2,1,40,776,0
528,2,2,1,1044,1
528,2,2,2,674,1
528,2,2,3,727,1
528,2,2,4,987,0
528,2,2,5,490,1
528,2,2,6,447,1
528,2,2,7,422,1
528,2,2,8,442,1
528,2,2,9,396,1
528,2,2,10,512,1
528,2,2,11,370,1
528,2,2,12,370,1
528,2,2,13,407,1
528,2,2,14,606,1
528,2,2,15,431,1
528,2,2,16,435,1
528,2,2,17,894,0
528,2,2,18,754,0
528,2,2,19,393,1
528,2,2,20,438,1
528,2,2,21,671,1
528,2,2,22,483,1
528,2,2,23,679,1
528,2,2,24,442,1
528,2,2,25,644,1
528,2,2,26,605,1
528,2,2,27,508,1
528,2,2,28,941,0
528,2,2,29,517,1
528,2,2,30,474,1
528,2,2,31,770,0
528,2,2,32,527,1
528,2,2,33,696,1
528,2,2,34,833,0
528,2,2,35,627,1
528,2,2,36,760,0
528,2,2,37,727,0
528,2,2,38,697,1
528,2,2,39,574,1
528,2,2,40,339,1
488,2,1,1,1544,1
488,2,1,2,1567,1
488,2,1,3,690,1
488,2,1,4,517,1
488,2,1,5,636,1
488,2,1,6,514,1
488,2,1,7,477,1
488,2,1,8,1017,1
488,2,1,9,821,1
488,2,1,10,606,1
488,2,1,11,483,1
488,2,1,12,449,1
488,2,1,13,731,1
488,2,1,14,482,1
488,2,1,15,416,1
488,2,1,16,744,1
488,2,1,17,444,1
488,2,1,18,492,1
488,2,1,19,445,1
488,2,1,20,344,1
488,2,1,21,493,1
488,2,1,22,811,0
488,2,1,23,705,1
488,2,1,24,458,1
488,2,1,25,624,1
488,2,1,26,441,1
488,2,1,27,324,1
488,2,1,28,632,1
488,2,1,29,386,1
488,2,1,30,400,1
488,2,1,31,793,1
488,2,1,32,579,1
488,2,1,33,440,1
488,2,1,34,482,1
488,2,1,35,421,1
488,2,1,36,506,1
488,2,1,37,1051,0
488,2,1,38,1196,1
488,2,1,39,687,1
488,2,1,40,680,1
488,2,2,1,1415,1
488,2,2,2,1525,1
488,2,2,3,567,1
488,2,2,4,854,1
488,2,2,5,554,1
488,2,2,6,1644,1
488,2,2,7,1505,1
488,2,2,8,1128,1
488,2,2,9,1321,1
488,2,2,10,898,1
488,2,2,11,753,1
488,2,2,12,611,1
488,2,2,13,706,1
488,2,2,14,769,1
488,2,2,15,800,1
488,2,2,16,1083,0
488,2,2,17,880,1
488,2,2,18,1035,0
488,2,2,19,951,1
488,2,2,20,1441,1
488,2,2,21,928,1
488,2,2,22,1083,0
488,2,2,23,783,1
488,2,2,24,914,1
488,2,2,25,891,1
488,2,2,26,870,1
488,2,2,27,1248,1
488,2,2,28,947,1
488,2,2,29,827,1
488,2,2,30,648,1
488,2,2,31,861,1
488,2,2,32,1004,1
488,2,2,33,1173,0
488,2,2,34,1412,1
488,2,2,35,761,1
488,2,2,36,625,1
488,2,2,37,429,1
488,2,2,38,1245,1
488,2,2,39,697,1
488,2,2,40,497,1
545,1,1,1,646,1
545,1,1,2,507,1
545,1,1,3,616,1
545,1,1,4,634,1
545,1,1,5,572,1
545,1,1,6,521,1
545,1,1,7,549,1
545,1,1,8,551,1
545,1,1,9,565,1
545,1,1,10,527,1
545,1,1,11,598,1
545,1,1,12,558,1
545,1,1,13,584,1
545,1,1,14,540,1
545,1,1,15,585,1
545,1,1,16,559,1
545,1,1,17,570,1
545,1,1,18,515,1
545,1,1,19,556,1
545,1,1,20,530,1
545,1,1,21,557,1
545,1,1,22,481,1
545,1,1,23,557,1
545,1,1,24,531,1
545,1,1,25,548,1
545,1,1,26,734,1
545,1,1,27,557,1
545,1,1,28,599,1
545,1,1,29,532,1
545,1,1,30,568,1
545,1,1,31,537,1
545,1,1,32,578,1
545,1,1,33,556,1
545,1,1,34,530,1
545,1,1,35,491,1
545,1,1,36,477,1
545,1,1,37,494,1
545,1,1,38,549,1
545,1,1,39,610,1
545,1,1,40,533,1
545,1,2,1,1050,1
545,1,2,2,655,1
545,1,2,3,1203,1
545,1,2,4,732,1
545,1,2,5,1257,1
545,1,2,6,477,1
545,1,2,7,497,1
545,1,2,8,523,1
545,1,2,9,562,1
545,1,2,10,419,1
545,1,2,11,389,1
545,1,2,12,1727,0
545,1,2,13,752,1
545,1,2,14,1006,1
545,1,2,15,623,1
545,1,2,16,649,1
545,1,2,17,565,1
545,1,2,18,585,1
545,1,2,19,554,1
545,1,2,20,637,1
545,1,2,21,631,1
545,1,2,22,519,1
545,1,2,23,551,1
545,1,2,24,464,1
545,1,2,25,548,1
545,1,2,26,680,1
545,1,2,27,679,1
545,1,2,28,718,1
545,1,2,29,555,1
545,1,2,30,861,0
545,1,2,31,571,1
545,1,2,32,1018,1
545,1,2,33,758,1
545,1,2,34,984,1
545,1,2,35,480,1
545,1,2,36,813,1
545,1,2,37,535,1
545,1,2,38,817,1
545,1,2,39,600,1
545,1,2,40,619,1
525,1,1,1,745,1
525,1,1,2,422,1
525,1,1,3,537,1
525,1,1,4,430,1
525,1,1,5,440,1
525,1,1,6,434,1
525,1,1,7,467,1
525,1,1,8,592,1
525,1,1,9,434,1
525,1,1,10,644,1
525,1,1,11,629,1
525,1,1,12,744,1
525,1,1,13,357,1
525,1,1,14,540,1
525,1,1,15,1210,0
525,1,1,16,596,1
525,1,1,17,632,1
525,1,1,18,474,1
525,1,1,19,497,1
525,1,1,20,425,1
525,1,1,21,411,1
525,1,1,22,582,1
525,1,1,23,449,1
525,1,1,24,426,1
525,1,1,25,561,1
525,1,1,26,502,1
525,1,1,27,565,1
525,1,1,28,553,1
525,1,1,29,510,1
525,1,1,30,461,1
525,1,1,31,481,1
525,1,1,32,530,1
525,1,1,33,471,1
525,1,1,34,528,1
525,1,1,35,542,1
525,1,1,36,571,1
525,1,1,37,545,1
525,1,1,38,487,1
525,1,1,39,607,1
525,1,1,40,377,1
525,1,2,1,988,1
525,1,2,2,1119,1
525,1,2,3,638,1
525,1,2,4,697,1
525,1,2,5,633,1
525,1,2,6,602,1
525,1,2,7,589,1
525,1,2,8,584,1
525,1,2,9,655,1
525,1,2,10,1417,1
525,1,2,11,738,1
525,1,2,12,623,1
525,1,2,13,609,1
525,1,2,14,512,1
525,1,2,15,615,1
525,1,2,16,554,1
525,1,2,17,630,1
525,1,2,18,441,1
525,1,2,19,938,1
525,1,2,20,543,1
525,1,2,21,532,1
525,1,2,22,498,1
525,1,2,23,641,1
525,1,2,24,450,1
525,1,2,25,744,1
525,1,2,26,485,1
525,1,2,27,645,1
525,1,2,28,678,1
525,1,2,29,910,1
525,1,2,30,757,1
525,1,2,31,1186,0
525,1,2,32,781,1
525,1,2,33,785,1
525,1,2,34,824,1
525,1,2,35,810,1
525,1,2,36,773,1
525,1,2,37,753,1
525,1,2,38,822,1
525,1,2,39,714,1
525,1,2,40,897,1
518,2,1,1,602,1
518,2,1,2,406,1
518,2,1,3,417,1
518,2,1,4,844,0
518,2,1,5,565,1
518,2,1,6,410,1
518,2,1,7,437,1
518,2,1,8,391,1
518,2,1,9,395,1
518,2,1,10,491,1
518,2,1,11,507,1
518,2,1,12,442,1
518,2,1,13,380,1
518,2,1,14,401,1
518,2,1,15,396,1
518,2,1,16,448,1
518,2,1,17,378,1
518,2,1,18,391,1
518,2,1,19,435,1
518,2,1,20,501,1
518,2,1,21,380,1
518,2,1,22,401,1
518,2,1,23,828,0
518,2,1,24,454,1
518,2,1,25,431,1
518,2,1,26,442,1
518,2,1,27,476,1
518,2,1,28,449,1
518,2,1,29,406,1
518,2,1,30,525,1
518,2,1,31,404,1
518,2,1,32,451,1
518,2,1,33,425,1
518,2,1,34,427,1
518,2,1,35,694,0
518,2,1,36,429,1
518,2,1,37,448,1
518,2,1,38,490,1
518,2,1,39,426,1
518,2,1,40,476,1
518,2,2,1,697,1
518,2,2,2,1601,1
518,2,2,3,524,1
518,2,2,4,419,1
518,2,2,5,382,1
518,2,2,6,546,1
518,2,2,7,600,1
518,2,2,8,371,1
518,2,2,9,368,1
518,2,2,10,709,1
518,2,2,11,720,1
518,2,2,12,751,1
518,2,2,13,476,1
518,2,2,14,533,1
518,2,2,15,459,1
518,2,2,16,571,1
518,2,2,17,545,1
518,2,2,18,495,1
518,2,2,19,631,1
518,2,2,20,313,1
518,2,2,21,505,1
518,2,2,22,496,1
518,2,2,23,656,1
518,2,2,24,656,1
518,2,2,25,386,1
518,2,2,26,494,1
518,2,2,27,430,1
518,2,2,28,464,1
518,2,2,29,514,1
518,2,2,30,698,0
518,2,2,31,505,1
518,2,2,32,444,1
518,2,2,33,674,1
518,2,2,34,395,1
518,2,2,35,574,1
518,2,2,36,580,1
518,2,2,37,528,1
518,2,2,38,391,1
518,2,2,39,595,1
518,2,2,40,599,1
500,2,1,1,865,1
500,2,1,2,449,1
500,2,1,3,490,1
500,2,1,4,354,1
500,2,1,5,472,1
500,2,1,6,560,1
500,2,1,7,397,1
500,2,1,8,449,1
500,2,1,9,475,1
500,2,1,10,363,1
500,2,1,11,480,1
500,2,1,12,417,1
500,2,1,13,499,1
500,2,1,14,379,1
500,2,1,15,463,1
500,2,1,16,416,1
500,2,1,17,547,1
500,2,1,18,441,1
500,2,1,19,603,1
500,2,1,20,430,1
500,2,1,21,457,1
500,2,1,22,506,1
500,2,1,23,601,1
500,2,1,24,572,1
500,2,1,25,497,1
500,2,1,26,1745,0
500,2,1,27,446,1
500,2,1,28,448,1
500,2,1,29,386,1
500,2,1,30,366,1
500,2,1,31,475,1
500,2,1,32,475,1
500,2,1,33,484,1
500,2,1,34,476,1
500,2,1,35,396,1
500,2,1,36,464,1
500,2,1,37,545,1
500,2,1,38,519,1
500,2,1,39,598,1
500,2,1,40,594,1
500,2,2,1,2741,1
500,2,2,2,562,1
500,2,2,3,448,1
500,2,2,4,746,1
500,2,2,5,975,1
500,2,2,6,700,1
500,2,2,7,619,1
500,2,2,8,566,1
500,2,2,9,666,1
500,2,2,10,595,1
500,2,2,11,471,1
500,2,2,12,879,1
500,2,2,13,736,1
500,2,2,14,670,1
500,2,2,15,406,1
500,2,2,16,490,1
500,2,2,17,578,1
500,2,2,18,822,1
500,2,2,19,713,1
500,2,2,20,1008,0
500,2,2,21,554,1
500,2,2,22,784,1
500,2,2,23,724,1
500,2,2,24,522,1
500,2,2,25,441,1
500,2,2,26,523,1
500,2,2,27,601,1
500,2,2,28,380,1
500,2,2,29,561,1
500,2,2,30,422,1
500,2,2,31,897,1
500,2,2,32,417,1
500,2,2,33,587,1
500,2,2,34,543,1
500,2,2,35,533,1
500,2,2,36,459,1
500,2,2,37,948,1
500,2,2,38,778,1
500,2,2,39,591,1
500,2,2,40,619,1
529,1,1,1,672,1
529,1,1,2,1017,0
529,1,1,3,619,1
529,1,1,4,550,1
529,1,1,5,387,1
529,1,1,6,543,1
529,1,1,7,461,1
529,1,1,8,486,1
529,1,1,9,414,1
529,1,1,10,506,1
529,1,1,11,465,1
529,1,1,12,450,1
529,1,1,13,499,1
529,1,1,14,474,1
529,1,1,15,467,1
529,1,1,16,428,1
529,1,1,17,550,1
529,1,1,18,900,0
529,1,1,19,530,1
529,1,1,20,609,1
529,1,1,21,740,0
529,1,1,22,674,1
529,1,1,23,426,1
529,1,1,24,581,1
529,1,1,25,362,1
529,1,1,26,415,1
529,1,1,27,642,1
529,1,1,28,420,1
529,1,1,29,382,1
529,1,1,30,450,1
529,1,1,31,372,1
529,1,1,32,416,1
529,1,1,33,459,1
529,1,1,34,548,1
529,1,1,35,450,1
529,1,1,36,355,1
529,1,1,37,488,0
529,1,1,38,496,1
529,1,1,39,480,1
529,1,1,40,440,1
529,1,2,1,596,1
529,1,2,2,2200,0
529,1,2,3,538,1
529,1,2,4,744,0
529,1,2,5,598,1
529,1,2,6,1074,0
529,1,2,7,1114,1
529,1,2,8,897,1
529,1,2,9,721,1
529,1,2,10,688,1
529,1,2,11,544,1
529,1,2,12,742,1
529,1,2,13,516,1
529,1,2,14,466,1
529,1,2,15,507,1
529,1,2,16,906,0
529,1,2,17,569,1
529,1,2,18,726,1
529,1,2,19,492,1
529,1,2,20,404,1
529,1,2,21,568,1
529,1,2,22,468,1
529,1,2,23,573,1
529,1,2,24,706,1
529,1,2,25,801,0
529,1,2,26,692,1
529,1,2,27,572,1
529,1,2,28,776,1
529,1,2,29,589,1
529,1,2,30,481,1
529,1,2,31,770,0
529,1,2,32,894,1
529,1,2,33,630,1
529,1,2,34,576,1
529,1,2,35,589,1
529,1,2,36,585,1
529,1,2,37,645,1
529,1,2,38,431,1
529,1,2,39,402,1
529,1,2,40,445,1
515,1,1,1,1297,1
515,1,1,2,735,1
515,1,1,3,568,1
515,1,1,4,624,1
515,1,1,5,534,1
515,1,1,6,559,1
515,1,1,7,471,1
515,1,1,8,547,1
515,1,1,9,475,1
515,1,1,10,728,1
515,1,1,11,609,1
515,1,1,12,575,1
515,1,1,13,543,1
515,1,1,14,511,1
515,1,1,15,465,1
515,1,1,16,517,1
515,1,1,17,662,1
515,1,1,18,795,1
515,1,1,19,690,1
515,1,1,20,678,1
515,1,1,21,682,1
515,1,1,22,605,1
515,1,1,23,516,1
515,1,1,24,622,1
515,1,1,25,612,1
515,1,1,26,594,1
515,1,1,27,585,1
515,1,1,28,480,1
515,1,1,29,419,1
515,1,1,30,424,1
515,1,1,31,454,1
515,1,1,32,458,1
515,1,1,33,678,1
515,1,1,34,498,1
515,1,1,35,732,1
515,1,1,36,566,1
515,1,1,37,694,1
515,1,1,38,729,1
515,1,1,39,683,1
515,1,1,40,759,1
515,1,2,1,941,1
515,1,2,2,567,1
515,1,2,3,519,1
515,1,2,4,537,1
515,1,2,5,626,1
515,1,2,6,735,1
515,1,2,7,633,1
515,1,2,8,743,1
515,1,2,9,688,1
515,1,2,10,740,1
515,1,2,11,550,1
515,1,2,12,542,1
515,1,2,13,560,1
515,1,2,14,632,1
515,1,2,15,509,1
515,1,2,16,584,1
515,1,2,17,575,1
515,1,2,18,646,1
515,1,2,19,683,1
515,1,2,20,807,1
515,1,2,21,558,1
515,1,2,22,631,1
515,1,2,23,564,1
515,1,2,24,748,1
515,1,2,25,407,1
515,1,2,26,540,1
515,1,2,27,653,1
515,1,2,28,674,1
515,1,2,29,534,1
515,1,2,30,575,1
515,1,2,31,496,1
515,1,2,32,594,1
515,1,2,33,800,1
515,1,2,34,560,1
515,1,2,35,712,1
515,1,2,36,659,1
515,1,2,37,679,1
515,1,2,38,475,1
515,1,2,39,1015,1
515,1,2,40,567,1
466,2,1,1,3541,1
466,2,1,2,1283,1
466,2,1,3,979,1
466,2,1,4,1272,1
466,2,1,5,944,1
466,2,1,6,1070,1
466,2,1,7,887,1
466,2,1,8,887,1
466,2,1,9,1759,1
466,2,1,10,1028,1
466,2,1,11,983,1
466,2,1,12,1011,1
466,2,1,13,830,1
466,2,1,14,793,1
466,2,1,15,837,1
466,2,1,16,767,1
466,2,1,17,804,1
466,2,1,18,871,1
466,2,1,19,984,1
466,2,1,20,836,1
466,2,1,21,846,1
466,2,1,22,848,1
466,2,1,23,857,1
466,2,1,24,866,1
466,2,1,25,899,1
466,2,1,26,938,1
466,2,1,27,824,1
466,2,1,28,1051,1
466,2,1,29,876,1
466,2,1,30,877,1
466,2,1,31,1158,1
466,2,1,32,971,1
466,2,1,33,831,1
466,2,1,34,801,1
466,2,1,35,997,1
466,2,1,36,1105,1
466,2,1,37,952,1
466,2,1,38,926,1
466,2,1,39,1020,1
466,2,1,40,991,1
466,2,2,1,10721,0
466,2,2,2,3007,0
466,2,2,3,1697,1
466,2,2,4,1282,1
466,2,2,5,1162,1
466,2,2,6,1135,1
466,2,2,7,1141,1
466,2,2,8,2723,0
466,2,2,9,1017,1
466,2,2,10,1411,1
466,2,2,11,951,1
466,2,2,12,1188,1
466,2,2,13,1008,1
466,2,2,14,1620,1
466,2,2,15,1358,1
466,2,2,16,963,1
466,2,2,17,1257,1
466,2,2,18,1434,1
466,2,2,19,1100,1
466,2,2,20,1115,1
466,2,2,21,946,1
466,2,2,22,1472,1
466,2,2,23,801,1
466,2,2,24,1228,1
466,2,2,25,959,1
466,2,2,26,1108,1
466,2,2,27,1356,1
466,2,2,28,913,1
466,2,2,29,832,1
466,2,2,30,1274,1
466,2,2,31,1499,1
466,2,2,32,914,1
466,2,2,33,1602,1
466,2,2,34,741,1
466,2,2,35,827,1
466,2,2,36,997,1
466,2,2,37,914,1
466,2,2,38,1537,1
466,2,2,39,1599,1
466,2,2,40,778,1
507,1,1,1,1202,1
507,1,1,2,788,1
507,1,1,3,765,1
507,1,1,4,744,1
507,1,1,5,1344,1
507,1,1,6,999,1
507,1,1,7,1013,1
507,1,1,8,752,1
507,1,1,9,797,1
507,1,1,10,663,1
507,1,1,11,951,1
507,1,1,12,747,1
507,1,1,13,757,1
507,1,1,14,703,1
507,1,1,15,1366,1
507,1,1,16,1074,1
507,1,1,17,734,1
507,1,1,18,736,1
507,1,1,19,812,1
507,1,1,20,700,1
507,1,1,21,777,1
507,1,1,22,1221,1
507,1,1,23,661,1
507,1,1,24,625,1
507,1,1,25,765,1
507,1,1,26,665,1
507,1,1,27,598,1
507,1,1,28,789,1
507,1,1,29,608,1
507,1,1,30,668,1
507,1,1,31,588,1
507,1,1,32,616,1
507,1,1,33,595,1
507,1,1,34,666,1
507,1,1,35,716,1
507,1,1,36,983,1
507,1,1,37,616,1
507,1,1,38,675,1
507,1,1,39,454,1
507,1,1,40,591,1
507,1,2,1,822,1
507,1,2,2,1381,1
507,1,2,3,1983,1
507,1,2,4,1669,1
507,1,2,5,888,1
507,1,2,6,1213,1
507,1,2,7,818,1
507,1,2,8,780,1
507,1,2,9,863,1
507,1,2,10,845,1
507,1,2,11,738,1
507,1,2,12,1239,1
507,1,2,13,648,1
507,1,2,14,698,1
507,1,2,15,744,1
507,1,2,16,700,1
507,1,2,17,665,1
507,1,2,18,656,1
507,1,2,19,721,1
507,1,2,20,1034,1
507,1,2,21,721,1
507,1,2,22,1381,1
507,1,2,23,703,1
507,1,2,24,1043,1
507,1,2,25,585,1
507,1,2,26,1090,1
507,1,2,27,713,1
507,1,2,28,920,1
507,1,2,29,745,1
507,1,2,30,1189,1
507,1,2,31,743,1
507,1,2,32,723,1
507,1,2,33,727,1
507,1,2,34,800,1
507,1,2,35,624,1
507,1,2,36,730,1
507,1,2,37,795,1
507,1,2,38,876,1
507,1,2,39,539,1
507,1,2,40,840,1
490,2,1,1,590,1
490,2,1,2,432,1
490,2,1,3,561,1
490,2,1,4,440,1
490,2,1,5,338,1
490,2,1,6,434,1
490,2,1,7,737,0
490,2,1,8,514,1
490,2,1,9,556,1
490,2,1,10,427,1
490,2,1,11,374,1
490,2,1,12,376,1
490,2,1,13,337,1
490,2,1,14,469,1
490,2,1,15,501,1
490,2,1,16,469,1
490,2,1,17,460,1
490,2,1,18,756,1
490,2,1,19,421,1
490,2,1,20,426,1
490,2,1,21,582,1
490,2,1,22,426,1
490,2,1,23,544,1
490,2,1,24,601,1
490,2,1,25,451,1
490,2,1,26,374,1
490,2,1,27,549,1
490,2,1,28,396,1
490,2,1,29,566,1
490,2,1,30,439,1
490,2,1,31,465,1
490,2,1,32,497,1
490,2,1,33,482,1
490,2,1,34,459,1
490,2,1,35,486,1
490,2,1,36,472,1
490,2,1,37,492,1
490,2,1,38,429,1
490,2,1,39,419,1
490,2,1,40,367,1
490,2,2,1,659,1
490,2,2,2,1452,1
490,2,2,3,699,1
490,2,2,4,825,1
490,2,2,5,522,1
490,2,2,6,479,1
490,2,2,7,603,1
490,2,2,8,468,1
490,2,2,9,393,1
490,2,2,10,502,1
490,2,2,11,629,1
490,2,2,12,638,1
490,2,2,13,512,1
490,2,2,14,604,1
490,2,2,15,392,1
490,2,2,16,409,1
490,2,2,17,570,1
490,2,2,18,619,1
490,2,2,19,536,1
490,2,2,20,451,1
490,2,2,21,489,1
490,2,2,22,429,1
490,2,2,23,422,1
490,2,2,24,414,1
490,2,2,25,492,1
490,2,2,26,594,1
490,2,2,27,578,1
490,2,2,28,448,1
490,2,2,29,574,1
490,2,2,30,567,1
490,2,2,31,512,1
490,2,2,32,484,1
490,2,2,33,540,1
490,2,2,34,444,1
490,2,2,35,497,1
490,2,2,36,462,1
490,2,2,37,529,1
490,2,2,38,459,1
490,2,2,39,486,1
490,2,2,40,384,1
508,2,1,1,562,1
508,2,1,2,1017,0
508,2,1,3,470,1
508,2,1,4,857,0
508,2,1,5,461,1
508,2,1,6,441,1
508,2,1,7,461,1
508,2,1,8,664,1
508,2,1,9,611,1
508,2,1,10,569,1
508,2,1,11,440,1
508,2,1,12,428,1
508,2,1,13,481,1
508,2,1,14,491,1
508,2,1,15,421,1
508,2,1,16,481,1
508,2,1,17,836,0
508,2,1,18,520,1
508,2,1,19,465,1
508,2,1,20,556,1
508,2,1,21,540,1
508,2,1,22,428,1
508,2,1,23,473,1
508,2,1,24,395,1
508,2,1,25,409,1
508,2,1,26,414,1
508,2,1,27,499,1
508,2,1,28,445,1
508,2,1,29,457,1
508,2,1,30,436,1
508,2,1,31,424,1
508,2,1,32,476,1
508,2,1,33,815,0
508,2,1,34,476,1
508,2,1,35,399,1
508,2,1,36,460,1
508,2,1,37,399,1
508,2,1,38,365,1
508,2,1,39,467,1
508,2,1,40,446,1
508,2,2,1,843,1
508,2,2,2,697,1
508,2,2,3,538,1
508,2,2,4,827,1
508,2,2,5,600,1
508,2,2,6,462,1
508,2,2,7,521,1
508,2,2,8,746,1
508,2,2,9,506,1
508,2,2,10,612,1
508,2,2,11,634,1
508,2,2,12,630,1
508,2,2,13,563,1
508,2,2,14,906,0
508,2,2,15,540,1
508,2,2,16,676,1
508,2,2,17,615,1
508,2,2,18,892,0
508,2,2,19,535,1
508,2,2,20,615,1
508,2,2,21,588,1
508,2,2,22,763,1
508,2,2,23,554,1
508,2,2,24,586,1
508,2,2,25,512,1
508,2,2,26,586,1
508,2,2,27,585,1
508,2,2,28,631,1
508,2,2,29,467,1
508,2,2,30,646,1
508,2,2,31,514,1
508,2,2,32,675,1
508,2,2,33,566,1
508,2,2,34,669,1
508,2,2,35,680,1
508,2,2,36,555,1
508,2,2,37,555,1
508,2,2,38,667,0
508,2,2,39,517,1
508,2,2,40,902,0
493,1,1,1,826,1
493,1,1,2,453,1
493,1,1,3,686,0
493,1,1,4,643,1
493,1,1,5,562,1
493,1,1,6,513,1
493,1,1,7,506,1
493,1,1,8,468,1
493,1,1,9,503,1
493,1,1,10,628,1
493,1,1,11,658,1
493,1,1,12,649,1
493,1,1,13,570,1
493,1,1,14,523,1
493,1,1,15,581,1
493,1,1,16,569,1
493,1,1,17,516,1
493,1,1,18,515,1
493,1,1,19,479,1
493,1,1,20,531,1
493,1,1,21,513,1
493,1,1,22,485,1
493,1,1,23,489,1
493,1,1,24,614,1
493,1,1,25,565,1
493,1,1,26,527,1
493,1,1,27,589,1
493,1,1,28,465,1
493,1,1,29,687,1
493,1,1,30,681,1
493,1,1,31,540,1
493,1,1,32,483,1
493,1,1,33,537,1
493,1,1,34,523,1
493,1,1,35,562,1
493,1,1,36,599,1
493,1,1,37,629,1
493,1,1,38,606,1
493,1,1,39,575,1
493,1,1,40,545,1
493,1,2,1,2425,1
493,1,2,2,1033,1
493,1,2,3,781,1
493,1,2,4,956,1
493,1,2,5,552,1
493,1,2,6,645,1
493,1,2,7,996,1
493,1,2,8,911,1
493,1,2,9,856,1
493,1,2,10,706,1
493,1,2,11,721,1
493,1,2,12,679,1
493,1,2,13,1024,0
493,1,2,14,802,1
493,1,2,15,3997,0
493,1,2,16,859,1
493,1,2,17,715,1
493,1,2,18,682,1
493,1,2,19,690,1
493,1,2,20,719,1
493,1,2,21,803,1
493,1,2,22,592,1
493,1,2,23,736,1
493,1,2,24,631,1
493,1,2,25,655,1
493,1,2,26,678,1
493,1,2,27,823,1
493,1,2,28,798,1
493,1,2,29,817,1
493,1,2,30,642,1
493,1,2,31,744,1
493,1,2,32,665,1
493,1,2,33,745,1
493,1,2,34,634,1
493,1,2,35,626,1
493,1,2,36,700,1
493,1,2,37,713,1
493,1,2,38,739,1
493,1,2,39,717,1
493,1,2,40,659,1
523,1,1,1,680,1
523,1,1,2,838,1
523,1,1,3,696,1
523,1,1,4,591,1
523,1,1,5,619,1
523,1,1,6,717,1
523,1,1,7,554,1
523,1,1,8,575,1
523,1,1,9,555,1
523,1,1,10,552,1
523,1,1,11,453,1
523,1,1,12,446,1
523,1,1,13,553,1
523,1,1,14,590,1
523,1,1,15,474,1
523,1,1,16,738,1
523,1,1,17,752,1
523,1,1,18,552,1
523,1,1,19,621,1
523,1,1,20,775,1
523,1,1,21,595,1
523,1,1,22,559,1
523,1,1,23,443,1
523,1,1,24,501,1
523,1,1,25,476,1
523,1,1,26,636,1
523,1,1,27,437,1
523,1,1,28,607,1
523,1,1,29,490,1
523,1,1,30,504,1
523,1,1,31,487,1
523,1,1,32,422,1
523,1,1,33,473,1
523,1,1,34,585,1
523,1,1,35,429,1
523,1,1,36,655,1
523,1,1,37,585,1
523,1,1,38,444,1
523,1,1,39,462,1
523,1,1,40,495,1
523,1,2,1,1095,1
523,1,2,2,552,1
523,1,2,3,773,1
523,1,2,4,641,1
523,1,2,5,518,1
523,1,2,6,580,1
523,1,2,7,488,1
523,1,2,8,528,1
523,1,2,9,462,1
523,1,2,10,1239,0
523,1,2,11,596,1
523,1,2,12,583,1
523,1,2,13,659,1
523,1,2,14,620,1
523,1,2,15,568,1
523,1,2,16,772,1
523,1,2,17,560,1
523,1,2,18,589,1
523,1,2,19,576,1
523,1,2,20,613,1
523,1,2,21,551,1
523,1,2,22,812,1
523,1,2,23,527,1
523,1,2,24,725,1
523,1,2,25,619,1
523,1,2,26,534,1
523,1,2,27,452,1
523,1,2,28,613,1
523,1,2,29,424,1
523,1,2,30,994,0
523,1,2,31,670,1
523,1,2,32,670,1
523,1,2,33,598,1
523,1,2,34,594,1
523,1,2,35,597,1
523,1,2,36,513,1
523,1,2,37,597,1
523,1,2,38,577,1
523,1,2,39,501,1
523,1,2,40,764,1
468,2,1,1,951,1
468,2,1,2,874,1
468,2,1,3,500,1
468,2,1,4,553,1
468,2,1,5,434,1
468,2,1,6,818,1
468,2,1,7,760,1
468,2,1,8,666,1
468,2,1,9,599,1
468,2,1,10,345,1
468,2,1,11,452,1
468,2,1,12,427,1
468,2,1,13,1025,0
468,2,1,14,1030,1
468,2,1,15,538,1
468,2,1,16,571,1
468,2,1,17,391,1
468,2,1,18,493,1
468,2,1,19,380,1
468,2,1,20,427,1
468,2,1,21,433,1
468,2,1,22,545,1
468,2,1,23,489,1
468,2,1,24,450,1
468,2,1,25,856,0
468,2,1,26,1356,1
468,2,1,27,663,1
468,2,1,28,553,1
468,2,1,29,370,1
468,2,1,30,433,1
468,2,1,31,557,1
468,2,1,32,394,1
468,2,1,33,351,1
468,2,1,34,548,1
468,2,1,35,379,1
468,2,1,36,330,1
468,2,1,37,336,1
468,2,1,38,789,0
468,2,1,39,561,1
468,2,1,40,1078,0
468,2,2,1,1000,1
468,2,2,2,496,1
468,2,2,3,937,1
468,2,2,4,807,1
468,2,2,5,725,1
468,2,2,6,778,1
468,2,2,7,547,1
468,2,2,8,442,1
468,2,2,9,472,1
468,2,2,10,329,1
468,2,2,11,677,1
468,2,2,12,423,1
468,2,2,13,724,1
468,2,2,14,540,1
468,2,2,15,710,1
468,2,2,16,815,1
468,2,2,17,631,1
468,2,2,18,830,1
468,2,2,19,849,1
468,2,2,20,517,1
468,2,2,21,572,1
468,2,2,22,366,1
468,2,2,23,551,1
468,2,2,24,579,1
468,2,2,25,856,1
468,2,2,26,928,1
468,2,2,27,751,1
468,2,2,28,528,1
468,2,2,29,659,1
468,2,2,30,687,1
468,2,2,31,773,1
468,2,2,32,562,1
468,2,2,33,741,1
468,2,2,34,1108,0
468,2,2,35,1280,1
468,2,2,36,1222,1
468,2,2,37,426,1
468,2,2,38,651,1
468,2,2,39,390,1
468,2,2,40,535,1
504,2,1,1,507,1
504,2,1,2,479,1
504,2,1,3,517,1
504,2,1,4,503,1
504,2,1,5,598,1
504,2,1,6,515,1
504,2,1,7,417,1
504,2,1,8,419,1
504,2,1,9,511,1
504,2,1,10,531,1
504,2,1,11,543,1
504,2,1,12,448,1
504,2,1,13,543,1
504,2,1,14,614,1
504,2,1,15,482,1
504,2,1,16,494,1
504,2,1,17,563,1
504,2,1,18,659,1
504,2,1,19,578,1
504,2,1,20,467,1
504,2,1,21,526,1
504,2,1,22,684,1
504,2,1,23,624,1
504,2,1,24,650,1
504,2,1,25,483,1
504,2,1,26,524,1
504,2,1,27,582,1
504,2,1,28,528,1
504,2,1,29,536,1
504,2,1,30,497,1
504,2,1,31,496,1
504,2,1,32,551,1
504,2,1,33,493,1
504,2,1,34,519,1
504,2,1,35,647,1
504,2,1,36,508,1
504,2,1,37,447,1
504,2,1,38,504,1
504,2,1,39,586,1
504,2,1,40,517,1
504,2,2,1,668,1
504,2,2,2,502,1
504,2,2,3,587,1
504,2,2,4,964,1
504,2,2,5,697,1
504,2,2,6,682,1
504,2,2,7,553,1
504,2,2,8,636,1
504,2,2,9,618,1
504,2,2,10,868,1
504,2,2,11,664,1
504,2,2,12,1031,1
504,2,2,13,595,1
504,2,2,14,654,1
504,2,2,15,591,1
504,2,2,16,529,1
504,2,2,17,491,1
504,2,2,18,630,1
504,2,2,19,542,1
504,2,2,20,511,1
504,2,2,21,564,1
504,2,2,22,846,1
504,2,2,23,555,1
504,2,2,24,658,1
504,2,2,25,1307,0
504,2,2,26,701,1
504,2,2,27,593,1
504,2,2,28,887,1
504,2,2,29,487,1
504,2,2,30,556,1
504,2,2,31,657,1
504,2,2,32,568,1
504,2,2,33,616,1
504,2,2,34,1274,0
504,2,2,35,705,1
504,2,2,36,792,1
504,2,2,37,573,1
504,2,2,38,779,1
504,2,2,39,479,1
504,2,2,40,705,1
495,1,1,1,618,1
495,1,1,2,494,1
495,1,1,3,477,1
495,1,1,4,515,1
495,1,1,5,421,1
495,1,1,6,415,1
495,1,1,7,462,1
495,1,1,8,432,1
495,1,1,9,406,1
495,1,1,10,692,1
495,1,1,11,455,1
495,1,1,12,439,1
495,1,1,13,357,1
495,1,1,14,434,1
495,1,1,15,355,1
495,1,1,16,460,1
495,1,1,17,472,1
495,1,1,18,471,1
495,1,1,19,426,1
495,1,1,20,676,1
495,1,1,21,523,1
495,1,1,22,381,1
495,1,1,23,583,1
495,1,1,24,460,1
495,1,1,25,527,1
495,1,1,26,543,1
495,1,1,27,434,1
495,1,1,28,410,1
495,1,1,29,503,1
495,1,1,30,472,1
495,1,1,31,459,1
495,1,1,32,520,1
495,1,1,33,397,1
495,1,1,34,464,1
495,1,1,35,382,1
495,1,1,36,487,1
495,1,1,37,394,1
495,1,1,38,471,1
495,1,1,39,509,1
495,1,1,40,468,1
495,1,2,1,526,1
495,1,2,2,680,1
495,1,2,3,717,1
495,1,2,4,675,1
495,1,2,5,466,1
495,1,2,6,724,1
495,1,2,7,645,1
495,1,2,8,560,1
495,1,2,9,493,1
495,1,2,10,727,1
495,1,2,11,603,1
495,1,2,12,604,1
495,1,2,13,569,1
495,1,2,14,732,1
495,1,2,15,448,1
495,1,2,16,595,1
495,1,2,17,584,1
495,1,2,18,682,1
495,1,2,19,556,1
495,1,2,20,589,1
495,1,2,21,392,1
495,1,2,22,623,1
495,1,2,23,438,1
495,1,2,24,747,1
495,1,2,25,566,1
495,1,2,26,930,1
495,1,2,27,604,1
495,1,2,28,676,1
495,1,2,29,584,1
495,1,2,30,615,1
495,1,2,31,590,1
495,1,2,32,448,1
495,1,2,33,505,1
495,1,2,34,1009,1
495,1,2,35,528,1
495,1,2,36,588,1
495,1,2,37,629,1
495,1,2,38,758,1
495,1,2,39,645,1
495,1,2,40,657,1
485,1,1,1,969,1
485,1,1,2,576,1
485,1,1,3,511,1
485,1,1,4,469,1
485,1,1,5,480,1
485,1,1,6,455,1
485,1,1,7,444,1
485,1,1,8,496,1
485,1,1,9,495,1
485,1,1,10,449,1
485,1,1,11,502,1
485,1,1,12,500,1
485,1,1,13,474,1
485,1,1,14,482,1
485,1,1,15,445,1
485,1,1,16,450,1
485,1,1,17,426,1
485,1,1,18,451,1
485,1,1,19,456,1
485,1,1,20,436,1
485,1,1,21,397,1
485,1,1,22,416,1
485,1,1,23,462,1
485,1,1,24,421,1
485,1,1,25,411,1
485,1,1,26,433,1
485,1,1,27,426,1
485,1,1,28,431,1
485,1,1,29,397,1
485,1,1,30,608,1
485,1,1,31,438,1
485,1,1,32,390,1
485,1,1,33,401,1
485,1,1,34,415,1
485,1,1,35,469,1
485,1,1,36,456,1
485,1,1,37,404,1
485,1,1,38,375,1
485,1,1,39,387,1
485,1,1,40,462,1
485,1,2,1,889,1
485,1,2,2,527,1
485,1,2,3,600,1
485,1,2,4,686,1
485,1,2,5,693,1
485,1,2,6,599,1
485,1,2,7,609,1
485,1,2,8,1099,1
485,1,2,9,544,1
485,1,2,10,633,1
485,1,2,11,541,1
485,1,2,12,682,1
485,1,2,13,537,1
485,1,2,14,694,1
485,1,2,15,560,1
485,1,2,16,1519,0
485,1,2,17,655,1
485,1,2,18,591,1
485,1,2,19,706,1
485,1,2,20,779,1
485,1,2,21,522,1
485,1,2,22,606,1
485,1,2,23,548,1
485,1,2,24,521,1
485,1,2,25,662,1
485,1,2,26,586,1
485,1,2,27,472,1
485,1,2,28,1240,0
485,1,2,29,887,1
485,1,2,30,549,1
485,1,2,31,541,1
485,1,2,32,778,1
485,1,2,33,541,1
485,1,2,34,638,1
485,1,2,35,534,1
485,1,2,36,627,1
485,1,2,37,612,1
485,1,2,38,533,1
485,1,2,39,647,1
485,1,2,40,535,1
479,1,1,1,650,1
479,1,1,2,672,1
479,1,1,3,428,1
479,1,1,4,431,1
479,1,1,5,518,1
479,1,1,6,1412,0
479,1,1,7,612,1
479,1,1,8,561,1
479,1,1,9,533,1
479,1,1,10,1126,0
479,1,1,11,697,1
479,1,1,12,648,1
479,1,1,13,449,1
479,1,1,14,530,1
479,1,1,15,512,1
479,1,1,16,516,1
479,1,1,17,580,1
479,1,1,18,575,1
479,1,1,19,547,1
479,1,1,20,703,1
479,1,1,21,535,1
479,1,1,22,490,1
479,1,1,23,624,1
479,1,1,24,933,1
479,1,1,25,596,1
479,1,1,26,849,1
479,1,1,27,648,1
479,1,1,28,635,1
479,1,1,29,751,1
479,1,1,30,604,1
479,1,1,31,473,1
479,1,1,32,514,1
479,1,1,33,692,1
479,1,1,34,1310,1
479,1,1,35,544,1
479,1,1,36,449,1
479,1,1,37,420,1
479,1,1,38,437,1
479,1,1,39,528,1
479,1,1,40,801,1
479,1,2,1,835,1
479,1,2,2,559,1
479,1,2,3,455,1
479,1,2,4,663,1
479,1,2,5,634,1
479,1,2,6,865,1
479,1,2,7,582,1
479,1,2,8,698,1
479,1,2,9,564,1
479,1,2,10,589,1
479,1,2,11,600,1
479,1,2,12,765,1
479,1,2,13,660,1
479,1,2,14,605,1
479,1,2,15,620,1
479,1,2,16,697,1
479,1,2,17,584,1
479,1,2,18,569,1
479,1,2,19,663,1
479,1,2,20,1355,1
479,1,2,21,689,1
479,1,2,22,748,1
479,1,2,23,843,1
479,1,2,24,489,1
479,1,2,25,575,0
479,1,2,26,746,1
479,1,2,27,572,1
479,1,2,28,729,1
479,1,2,29,442,1
479,1,2,30,490,1
479,1,2,31,420,1
479,1,2,32,996,0
479,1,2,33,723,1
479,1,2,34,936,1
479,1,2,35,1293,1
479,1,2,36,576,1
479,1,2,37,470,1
479,1,2,38,472,1
479,1,2,39,444,1
479,1,2,40,459,1
477,1,1,1,801,1
477,1,1,2,589,1
477,1,1,3,608,1
477,1,1,4,548,1
477,1,1,5,609,1
477,1,1,6,581,1
477,1,1,7,505,1
477,1,1,8,568,1
477,1,1,9,509,1
477,1,1,10,1348,0
477,1,1,11,745,1
477,1,1,12,943,1
477,1,1,13,613,1
477,1,1,14,456,1
477,1,1,15,665,1
477,1,1,16,538,1
477,1,1,17,552,1
477,1,1,18,893,0
477,1,1,19,636,1
477,1,1,20,590,1
477,1,1,21,570,1
477,1,1,22,702,1
477,1,1,23,542,1
477,1,1,24,771,1
477,1,1,25,912,1
477,1,1,26,855,1
477,1,1,27,584,1
477,1,1,28,532,1
477,1,1,29,506,1
477,1,1,30,577,1
477,1,1,31,638,1
477,1,1,32,855,1
477,1,1,33,1016,1
477,1,1,34,723,1
477,1,1,35,985,1
477,1,1,36,765,1
477,1,1,37,730,1
477,1,1,38,577,1
477,1,1,39,677,1
477,1,1,40,662,1
477,1,2,1,992,1
477,1,2,2,1068,1
477,1,2,3,845,1
477,1,2,4,710,1
477,1,2,5,718,1
477,1,2,6,1284,1
477,1,2,7,772,1
477,1,2,8,1160,0
477,1,2,9,893,1
477,1,2,10,884,1
477,1,2,11,756,1
477,1,2,12,1145,1
477,1,2,13,871,1
477,1,2,14,783,1
477,1,2,15,763,1
477,1,2,16,696,1
477,1,2,17,640,1
477,1,2,18,610,1
477,1,2,19,749,1
477,1,2,20,818,1
477,1,2,21,909,1
477,1,2,22,884,1
477,1,2,23,732,1
477,1,2,24,682,1
477,1,2,25,730,1
477,1,2,26,625,1
477,1,2,27,779,1
477,1,2,28,895,1
477,1,2,29,1055,1
477,1,2,30,720,1
477,1,2,31,919,1
477,1,2,32,1245,1
477,1,2,33,999,1
477,1,2,34,834,1
477,1,2,35,692,1
477,1,2,36,756,1
477,1,2,37,713,1
477,1,2,38,776,1
477,1,2,39,908,1
477,1,2,40,788,1
456,2,1,1,736,1
456,2,1,2,482,1
456,2,1,3,419,1
456,2,1,4,379,1
456,2,1,5,346,1
456,2,1,6,332,1
456,2,1,7,786,0
456,2,1,8,477,1
456,2,1,9,398,1
456,2,1,10,450,1
456,2,1,11,370,1
456,2,1,12,436,1
456,2,1,13,547,1
456,2,1,14,778,0
456,2,1,15,586,0
456,2,1,16,526,1
456,2,1,17,308,1
456,2,1,18,392,1
456,2,1,19,408,1
456,2,1,20,366,1
456,2,1,21,463,1
456,2,1,22,367,1
456,2,1,23,479,1
456,2,1,24,332,1
456,2,1,25,415,1
456,2,1,26,394,1
456,2,1,27,276,1
456,2,1,28,365,1
456,2,1,29,274,1
456,2,1,30,330,1
456,2,1,31,333,1
456,2,1,32,301,1
456,2,1,33,370,1
456,2,1,34,253,1
456,2,1,35,444,1
456,2,1,36,288,1
456,2,1,37,573,0
456,2,1,38,405,1
456,2,1,39,247,1
456,2,1,40,424,1
456,2,2,1,1252,1
456,2,2,2,1347,1
456,2,2,3,553,1
456,2,2,4,375,1
456,2,2,5,633,0
456,2,2,6,846,1
456,2,2,7,545,1
456,2,2,8,566,1
456,2,2,9,445,1
456,2,2,10,867,0
456,2,2,11,466,1
456,2,2,12,592,1
456,2,2,13,533,1
456,2,2,14,521,1
456,2,2,15,545,1
456,2,2,16,400,1
456,2,2,17,590,0
456,2,2,18,684,1
456,2,2,19,846,0
456,2,2,20,828,1
456,2,2,21,873,1
456,2,2,22,507,1
456,2,2,23,352,1
456,2,2,24,805,1
456,2,2,25,485,1
456,2,2,26,655,0
456,2,2,27,569,1
456,2,2,28,947,0
456,2,2,29,352,1
456,2,2,30,717,0
456,2,2,31,443,1
456,2,2,32,455,1
456,2,2,33,581,1
456,2,2,34,440,1
456,2,2,35,616,0
456,2,2,36,663,1
456,2,2,37,373,1
456,2,2,38,485,1
456,2,2,39,322,1
456,2,2,40,720,0
